timestamp,timestamp_sample,ref_timestamp,ref_lat,ref_lon,x,y,z,delta_xy[0],delta_xy[1],delta_z,vx,vy,vz,z_deriv,delta_vxy[0],delta_vxy[1],delta_vz,ax,ay,az,heading,delta_heading,ref_alt,dist_bottom,eph,epv,evh,evv,vxy_max,vz_max,hagl_min,hagl_max,xy_valid,z_valid,v_xy_valid,v_z_valid,xy_reset_counter,z_reset_counter,vxy_reset_counter,vz_reset_counter,heading_reset_counter,heading_good_for_control,xy_global,z_global,dist_bottom_valid,dist_bottom_sensor_bitfield
6971384000,6971384000,1032000,41.606704,-86.3556021,-0.6455695,-1.3875127,0.11225456,0.00036031273,0.00019440363,0.0,-0.0009645965,-0.0023846517,0.00014694054,-0.0012047034,-0.00056974834,-0.012147613,-0.016767163,0.008394062,-0.02208415,-0.015326838,-1.0514736,0.008940887,229.39902,0.1,0.084858924,0.102436475,0.008108816,0.0057622553,inf,inf,inf,inf,1,1,1,1,2,0,2,1,4,0,1,1,1,0
6971888000,6971888000,1032000,41.606704,-86.3556021,-0.64619136,-1.3869351,0.11046172,0.00036031273,0.00019440363,0.0,-0.0010195782,-0.001519369,0.0013595538,0.00022418429,-0.00056974834,-0.012147613,-0.016767163,0.07212941,-0.013359387,0.37616017,-1.0510436,0.008940887,229.39902,0.10048091,0.0845796,0.10205422,0.015853368,0.0114017725,inf,inf,inf,inf,1,1,1,1,2,0,2,1,4,0,1,1,1,0
6972384000,6972384000,1032000,41.606704,-86.3556021,-0.6458614,-1.3863435,0.110652335,0.00036031273,0.00019440363,0.0,0.00083311775,0.0007390791,0.0018065412,0.0015859155,-0.00056974834,-0.012147613,-0.016767163,-0.035730835,5.0233844e-05,-0.15161936,-1.0507797,0.008940887,229.39902,0.10078191,0.08432204,0.10172756,0.020821815,0.015116214,inf,inf,inf,inf,1,1,1,1,2,0,2,1,4,0,1,1,1,0
6972888000,6972888000,1032000,41.606704,-86.3556021,-0.64543515,-1.3866614,0.1117833,0.00036031273,0.00019440363,0.0,0.0027502961,-0.00091504346,0.002193325,0.0021327257,-0.00056974834,-0.012147613,-0.016767163,-0.061580967,0.047659323,-0.27009943,-1.050237,0.008940887,229.39902,0.10013484,0.08402209,0.10134156,0.012846758,0.009192809,inf,inf,inf,inf,1,1,1,1,2,0,2,1,4,0,1,1,1,0
6973384000,6973384000,1032000,41.606704,-86.3556021,-0.6453434,-1.3868266,0.112784415,0.00036031273,0.00019440363,0.0,-0.001598078,-0.00042551686,0.003271808,0.0021874006,-0.00056974834,-0.012147613,-0.016767163,-0.042988196,0.019145614,0.01974118,-1.0501347,0.008940887,229.39902,0.1,0.08375949,0.101017185,0.018461535,0.01334206,inf,inf,inf,inf,1,1,1,1,2,0,2,1,4,0,1,1,1,0
6973888000,6973888000,1032000,41.606704,-86.3556021,-0.64600736,-1.3871925,0.11128195,0.00036031273,0.00019440363,0.0,-0.0022676087,-0.0031023815,0.0005620035,-0.00086767797,-0.00056974834,-0.012147613,-0.016767163,-0.004146041,-0.07532541,0.004519645,-1.0501555,0.008940887,229.39902,0.1,0.083334446,0.10064533,0.0090557635,0.0064423895,inf,inf,inf,inf,1,1,1,1,2,0,2,1,4,0,1,1,1,0
6974384000,6974384000,1032000,41.606704,-86.3556021,-0.64699805,-1.3873959,0.11170086,0.00036031273,0.00019440363,0.0,-0.001460138,-0.0028631403,0.006588996,0.0050886306,-0.00056974834,-0.012147613,-0.016767163,-0.02362985,-0.019628339,0.2603493,-1.0502248,0.008940887,229.39902,0.1,0.08321509,0.10028337,0.015851865,0.011402193,inf,inf,inf,inf,1,1,1,1,2,0,2,1,4,0,1,1,1,0
6974888000,6974888000,1032000,41.606704,-86.3556021,-0.64486265,-1.385867,0.11118302,0.00036031273,0.00019440363,0.0,0.002773576,0.002674551,0.00031712325,-0.0013915282,-0.00056974834,-0.012147613,-0.016767163,0.0045021037,0.05349101,0.049958874,-1.0499332,0.008940887,229.39902,0.1,0.08280756,0.09996438,0.0014142136,0.001,inf,inf,inf,inf,1,1,1,1,2,0,2,1,4,0,1,1,1,0
6975384000,6975384000,1032000,41.606704,-86.3556021,-0.6452864,-1.3856719,0.11067391,0.00036031273,0.00019440363,0.0,-0.0018217618,0.00271741,7.8123274e-05,-0.00083067303,-0.00056974834,-0.012147613,-0.016767163,0.0037939195,0.052773193,0.29094508,-1.0495797,0.008940887,229.39902,0.10030959,0.08254573,0.09960804,0.012849273,0.009192801,inf,inf,inf,inf,1,1,1,1,2,0,2,1,4,0,1,1,1,0
6975888000,6975888000,1032000,41.606704,-86.3556021,-0.64651155,-1.3847611,0.11009074,0.00036031273,0.00019440363,0.0,-0.0003575874,0.0073622046,-0.0028474312,-0.0032427728,-0.00056974834,-0.012147613,-0.016767163,0.011588803,0.033407047,-0.38300923,-1.0498496,0.008940887,229.39902,0.10073554,0.08230144,0.09930206,0.01894387,0.01370594,inf,inf,inf,inf,1,1,1,1,2,0,2,1,4,0,1,1,1,0
6976384000,6976384000,1032000,41.606704,-86.3556021,-0.64611346,-1.3857609,0.109142944,0.00036031273,0.00019440363,0.0,-0.0008457729,0.0031007577,-0.005042135,-0.00500669,-0.00056974834,-0.012147613,-0.016767163,0.09871319,0.06042959,-0.20045792,-1.0494237,0.008940887,229.39902,0.10110156,0.08208752,0.09897184,0.023436584,0.017098075,inf,inf,inf,inf,1,1,1,1,2,0,2,1,4,0,1,1,1,0
6976888000,6976888000,1032000,41.606704,-86.3556021,-0.64738315,-1.3851113,0.10972852,0.00036031273,0.00019440363,0.0,-0.007485838,0.0058662044,0.0041274293,0.0044315453,-0.00056974834,-0.012147613,-0.016767163,-0.057720657,0.017820144,1.4082816,-1.0492996,0.008940887,229.39902,0.100515984,0.08384707,0.09961881,0.045431532,0.03426446,inf,inf,inf,inf,1,1,1,1,2,0,2,1,4,0,1,1,1,0
6977384000,6977384000,1032000,41.606704,-86.3556021,-0.65332675,-1.3750232,0.078903444,0.00036031273,0.00019440363,0.0,-0.019310664,0.04254631,-0.3288974,-0.32866025,-0.00056974834,-0.012147613,-0.016767163,-0.118823424,0.1404951,-1.9677578,-1.0558202,0.008940887,229.39902,0.13207993,0.09191669,0.10354328,0.06462269,0.04895184,inf,inf,inf,inf,1,1,1,1,2,0,2,1,4,0,1,1,1,0
6977888000,6977888000,1032000,41.606704,-86.3556021,-0.65950394,-1.3511592,-0.34154123,0.00036031273,0.00019440363,0.0,-0.0076769446,0.029337805,-1.3488567,-1.3469857,-0.00056974834,-0.012147613,-0.016767163,-0.006379705,-0.094028376,-2.096463,-1.0552853,0.008940887,229.39902,0.55252457,0.10953306,0.11356054,0.084057905,0.06228376,inf,inf,inf,inf,1,1,1,1,2,0,2,1,4,0,1,1,1,0
6978384000,6978384000,1032000,41.606704,-86.3556021,-0.6577476,-1.3448519,-1.0602305,0.00036031273,0.00019440363,0.0,0.0055346773,-0.0010851095,-1.224405,-1.2229666,-0.00056974834,-0.012147613,-0.016767163,0.013742493,-0.06281462,1.1923293,-1.0544099,0.008940887,229.39902,1.2712139,0.1395754,0.13141493,0.102217995,0.07541741,inf,inf,inf,inf,1,1,1,1,2,0,2,1,4,0,1,1,1,0
6978888000,6978888000,1032000,41.606704,-86.3556021,-0.6529816,-1.3480484,-1.5424316,0.00036031273,0.00019440363,0.0,0.0048452015,-0.007291308,-0.7208986,-0.7223838,-0.00056974834,-0.012147613,-0.016767163,-0.039577343,0.01307046,0.6041032,-1.0507241,0.002913286,229.39902,1.753415,0.16972025,0.15490064,0.105789356,0.085326046,inf,inf,inf,inf,1,1,1,1,2,0,2,1,5,0,1,1,1,0
6979384000,6979384000,1032000,41.606704,-86.3556021,-0.65001625,-1.3543924,-1.8271537,0.00036031273,0.00019440363,0.0,0.0048308433,-0.008971945,-0.44604304,-0.44825998,-0.00056974834,-0.012147613,-0.016767163,0.15692528,0.15415394,0.6543173,-1.0483471,0.002913286,229.39902,2.038137,0.20802058,0.18616407,0.114779666,0.096645676,inf,inf,inf,inf,1,1,1,1,2,0,2,1,5,0,1,1,1,0
6979888000,6979888000,1032000,41.606704,-86.3556021,-0.6474931,-1.3585882,-2.0057135,0.00036031273,0.00019440363,0.0,0.0025698643,-0.0026482209,-0.2799091,-0.28142655,-0.00056974834,-0.012147613,-0.016767163,-0.002607415,0.012823392,0.3095464,-1.04746,0.002913286,229.39902,2.2166967,0.23088057,0.21455918,0.12059542,0.10191625,inf,inf,inf,inf,1,1,1,1,2,0,2,1,5,1,1,1,1,0
6980384000,6980384000,1032000,41.606704,-86.3556021,-0.64531296,-1.3613967,-2.1169138,0.00036031273,0.00019440363,0.0,0.00041845225,0.0041225255,-0.18161808,-0.18140326,-0.00056974834,-0.012147613,-0.016767163,-0.009347684,0.018063873,0.4242574,-1.0467476,0.002913286,229.39902,2.327897,0.25776136,0.24580842,0.13333714,0.10776497,inf,inf,inf,inf,1,1,1,1,2,0,2,1,5,1,1,1,1,0
6980880000,6980880000,1032000,41.606704,-86.3556021,-0.648373,-1.3607697,-2.091399,0.00036031273,0.00019440363,0.0,0.0003532067,0.01921378,0.07329249,0.079040974,-0.00056974834,-0.012147613,-0.016767163,0.029876377,0.11017594,-0.2910402,-1.0468581,0.002913286,229.39902,2.3023822,0.28198856,0.27491695,0.14349207,0.11174566,inf,inf,inf,inf,1,1,1,1,2,0,2,1,5,1,1,1,1,0
6981384000,6981384000,1032000,41.606704,-86.3556021,-0.6488074,-1.3424158,-2.1033654,0.00036031273,0.00019440363,0.0,0.0003475827,0.14523114,-0.20194198,-0.18811546,-0.00056974834,-0.012147613,-0.016767163,-0.0047025983,0.6264788,-0.6828541,-1.0501523,0.002913286,229.39902,2.3143487,0.30407688,0.30299753,0.15285051,0.11472625,inf,inf,inf,inf,1,1,1,1,2,0,2,1,5,1,1,1,0,0
6981888000,6981888000,1032000,41.606704,-86.3556021,-0.6477148,-1.1733955,-2.2757423,0.00036031273,0.00019440363,0.0,-0.0018899601,0.67797,-0.50014544,-0.48591402,-0.00056974834,-0.012147613,-0.016767163,0.031567577,1.5447919,-0.5164426,-1.0481967,0.002913286,229.39902,2.4867256,0.3243189,0.3270948,0.16139625,0.116454504,inf,inf,inf,inf,1,1,1,1,2,0,2,1,5,1,1,1,0,0
6982384000,6982384000,1032000,41.606704,-86.3556021,-0.64447844,-0.6778217,-2.5627859,0.00036031273,0.00019440363,0.0,0.000183915,1.4337409,-0.6513701,-0.6405862,-0.00056974834,-0.012147613,-0.016767163,-0.022689048,1.4852576,-0.26999232,-1.0510368,0.002913286,229.39902,2.7737691,0.33892858,0.34620675,0.16604662,0.11667376,inf,inf,inf,inf,1,1,1,1,2,0,2,1,5,1,1,1,0,0
6982888000,6982888000,1032000,41.606704,-86.3556021,-0.62694645,0.18592401,-2.909464,0.00036031273,0.00019440363,0.0,-0.002860305,2.0199072,-0.7051463,-0.6997683,-0.00056974834,-0.012147613,-0.016767163,0.032981627,0.90608865,-0.17794693,-1.061588,0.002913286,229.39902,3.1204472,0.3328377,0.35634157,0.15580308,0.11352791,inf,inf,inf,inf,1,1,1,1,2,0,2,1,5,1,1,1,0,0
6983384000,6983384000,1032000,41.606704,-86.3556021,-0.6053443,1.2701676,-3.2685401,0.00036031273,0.00019440363,0.0,-0.016906347,2.326885,-0.69452715,-0.69783235,-0.00056974834,-0.012147613,-0.016767163,-0.2011406,0.14371805,0.7765255,-1.0714636,0.002913286,229.39902,3.4795234,0.3648821,0.37790507,0.16824368,0.11707701,inf,inf,inf,inf,1,1,1,1,2,0,2,1,5,1,1,1,0,0
6983888000,6983888000,1032000,41.606704,-86.3556021,-0.59104055,2.4846692,-3.63437,0.00036031273,0.00019440363,0.0,-0.027600545,2.4545715,-0.66984147,-0.68752915,-0.00056974834,-0.012147613,-0.016767163,-0.009025408,0.14833283,0.053030375,-1.0761483,0.002913286,229.39902,3.8453534,0.35111368,0.38237986,0.15120468,0.11355367,inf,inf,inf,inf,1,1,1,1,2,0,2,1,5,1,1,1,0,0
6984384000,6984384000,1032000,41.606704,-86.3556021,-0.5990912,3.7270737,-3.9893234,0.00036031273,0.00019440363,0.0,-0.0403758,2.5033786,-0.6494624,-0.6813864,-0.00056974834,-0.012147613,-0.016767163,-0.016801413,-0.05495868,0.038897555,-1.0837743,0.002913286,229.39902,4.200307,0.35842073,0.39046788,0.14928614,0.11346577,inf,inf,inf,inf,1,1,1,1,2,0,2,1,5,1,1,1,0,0
6984888000,6984888000,1032000,41.606704,-86.3556021,-0.6178736,5.0112734,-4.3406544,0.00036031273,0.00019440363,0.0,-0.03259743,2.519962,-0.6464861,-0.6855839,-0.00056974834,-0.012147613,-0.016767163,0.021891909,0.07076495,-0.04474359,-1.0905986,0.002913286,229.39902,4.5516376,0.3635691,0.39950994,0.1470252,0.11380628,inf,inf,inf,inf,1,1,1,1,2,0,2,1,5,1,1,1,0,0
6985384000,6985384000,1032000,41.606704,-86.3556021,-0.6380502,6.2821503,-4.6903744,0.00036031273,0.00019440363,0.0,-0.020303562,2.5184412,-0.63201076,-0.679684,-0.00056974834,-0.012147613,-0.016767163,0.030811084,0.03015113,-0.062322307,-1.1017586,0.002913286,229.39902,4.9013577,0.36812633,0.40391392,0.14645992,0.113864966,inf,inf,inf,inf,1,1,1,1,2,0,2,1,5,1,1,1,0,0
6985888000,6985888000,1032000,41.606704,-86.3556021,-0.65947485,7.5564113,-5.0446,0.00036031273,0.00019440363,0.0,-0.0031981932,2.488717,-0.6254849,-0.6798016,-0.00056974834,-0.012147613,-0.016767163,-0.027965922,-0.031501,-0.02679235,-1.1086655,0.002913286,229.39902,5.2555833,0.3736978,0.41053584,0.14778435,0.11486046,inf,inf,inf,inf,1,1,1,1,2,0,2,1,5,1,1,1,0,0
6986384000,6986384000,1032000,41.606704,-86.3556021,-0.6745399,8.800649,-5.3872275,0.00036031273,0.00019440363,0.0,0.0068024956,2.484611,-0.644246,-0.6984347,-0.00056974834,-0.012147613,-0.016767163,-0.000100412944,0.10374216,-0.47641808,-1.1179978,0.002913286,229.39902,5.598211,0.37615106,0.4151478,0.147602,0.11539734,inf,inf,inf,inf,1,1,1,1,2,0,2,1,5,1,1,1,0,0
6986888000,6986888000,1032000,41.606704,-86.3556021,-0.68454474,10.063598,-5.747482,0.00036031273,0.00019440363,0.0,0.023257125,2.4742904,-0.6451983,-0.706339,-0.00056974834,-0.012147613,-0.016767163,0.063822895,-0.11406683,0.009440754,-1.128417,0.002913286,229.39902,5.958465,0.35956132,0.41015363,0.13916862,0.112382546,inf,inf,inf,inf,1,1,1,1,2,0,2,1,5,1,1,1,0,0
6987384000,6987384000,1032000,41.606704,-86.3556021,-0.6850667,11.298053,-6.1043625,0.00036031273,0.00019440363,0.0,0.030588407,2.4748898,-0.6404701,-0.70571625,-0.00056974834,-0.012147613,-0.016767163,-0.0012468264,0.053611368,0.026836926,-1.1370138,0.002913286,229.39902,6.315346,0.3825259,0.4202102,0.14960533,0.11674883,inf,inf,inf,inf,1,1,1,1,2,0,2,1,5,1,1,1,0,0
6987888000,6987888000,1032000,41.606704,-86.3556021,-0.6895435,12.561068,-6.4699564,0.00036031273,0.00019440363,0.0,0.02628672,2.477486,-0.6352935,-0.7073988,-0.00056974834,-0.012147613,-0.016767163,0.030771507,0.08580375,-0.0066199037,-1.1487609,0.002913286,229.39902,6.6809397,0.3640941,0.41409487,0.14044917,0.11353832,inf,inf,inf,inf,1,1,1,1,2,0,2,1,5,1,1,1,0,0
6988384000,6988384000,1032000,41.606704,-86.3556021,-0.69444776,13.796513,-6.820476,0.00036031273,0.00019440363,0.0,0.027108923,2.4654715,-0.63269496,-0.70370066,-0.00056974834,-0.012147613,-0.016767163,-0.025999995,0.0177157,-0.012959416,-1.1555834,0.002913286,229.39902,7.0314593,0.36711824,0.4168538,0.14238217,0.114542186,inf,inf,inf,inf,1,1,1,1,2,0,2,1,5,1,1,1,0,0
6988888000,6988888000,1032000,41.606704,-86.3556021,-0.690045,15.046106,-7.1733594,0.00036031273,0.00019440363,0.0,0.03480917,2.475691,-0.644,-0.71009654,-0.00056974834,-0.012147613,-0.016767163,-0.059202004,0.0077668033,-0.07819763,-1.1667782,0.002913286,229.39902,7.3843427,0.3692549,0.4167808,0.14314502,0.11498869,inf,inf,inf,inf,1,1,1,1,2,0,2,1,5,1,1,1,0,0
6989384000,6989384000,1032000,41.606704,-86.3556021,-0.6874015,16.280724,-7.527036,0.00036031273,0.00019440363,0.0,0.03168324,2.476081,-0.64775956,-0.7134256,-0.00056974834,-0.012147613,-0.016767163,0.29403934,-0.040846054,0.24784535,-1.1735715,0.002913286,229.39902,7.7380195,0.37161973,0.41606483,0.14455512,0.11544656,inf,inf,inf,inf,1,1,1,1,2,0,2,1,5,1,1,1,0,0
6989888000,6989888000,1032000,41.606704,-86.3556021,-0.6830937,17.532738,-7.883122,0.00036031273,0.00019440363,0.0,0.030450873,2.4862804,-0.64556766,-0.7076618,-0.00056974834,-0.012147613,-0.016767163,-0.038723636,-0.026056902,0.038109656,-1.1844541,0.002913286,229.39902,8.094106,0.37431484,0.41882247,0.14587016,0.11634875,inf,inf,inf,inf,1,1,1,1,2,0,2,1,5,1,1,1,0,0
6990384000,6990384000,1032000,41.606704,-86.3556021,-0.6803971,18.76709,-8.231171,0.00036031273,0.00019440363,0.0,0.025150856,2.4883008,-0.6460727,-0.7033191,-0.00056974834,-0.012147613,-0.016767163,0.015223707,-0.04632645,0.033903804,-1.1879234,0.002913286,229.39902,8.442154,0.37593314,0.42072558,0.14660186,0.116910145,inf,inf,inf,inf,1,1,1,1,2,0,2,1,5,1,1,1,0,0
6990880000,6990880000,1032000,41.606704,-86.3556021,-0.68126816,20.006018,-8.578673,0.00036031273,0.00019440363,0.0,0.026086956,2.4869742,-0.658551,-0.71174276,-0.00056974834,-0.012147613,-0.016767163,0.08062936,0.0060496773,0.032638136,-1.1975237,0.002913286,229.39902,8.789657,0.3586996,0.41386393,0.13863173,0.1135244,inf,inf,inf,inf,1,1,1,1,2,0,2,1,5,1,1,1,0,0
6991384000,6991384000,1032000,41.606704,-86.3556021,-0.6750629,21.267725,-8.937207,0.00036031273,0.00019440363,0.0,0.02481972,2.5057564,-0.67291296,-0.7223226,-0.00056974834,-0.012147613,-0.016767163,0.057788916,0.14980249,-0.008809443,-1.2047782,0.002913286,229.39902,9.1481905,0.38157028,0.41922945,0.14985603,0.117690854,inf,inf,inf,inf,1,1,1,1,2,0,2,1,5,1,1,1,0,0
6991888000,6991888000,1032000,41.606704,-86.3556021,-0.67312664,22.527258,-9.3075285,0.00036031273,0.00019440363,0.0,0.018601237,2.5077686,-0.66203696,-0.71730185,-0.00056974834,-0.012147613,-0.016767163,-0.02355989,-0.008186537,-0.083977416,-1.2141778,0.002913286,229.39902,9.518512,0.363499,0.41594943,0.14099787,0.114607945,inf,inf,inf,inf,1,1,1,1,2,0,2,1,5,1,1,1,0,0
6992384000,6992384000,1032000,41.606704,-86.3556021,-0.6696667,23.76422,-9.655859,0.00036031273,0.00019440363,0.0,0.018957084,2.4999218,-0.6601035,-0.7094345,-0.00056974834,-0.012147613,-0.016767163,-0.16980095,-0.23759285,0.6633456,-1.2180451,0.002913286,229.39902,9.866842,0.38741812,0.4209828,0.15284243,0.118742,inf,inf,inf,inf,1,1,1,1,2,0,2,1,5,1,1,1,0,0
6992880000,6992880000,1032000,41.606704,-86.3556021,-0.6715578,24.99565,-10.014653,0.00036031273,0.00019440363,0.0,0.018987693,2.5025606,-0.6652053,-0.71829605,-0.00056974834,-0.012147613,-0.016767163,0.021955615,0.12309682,-0.007658328,-1.225819,0.002913286,229.39902,10.2256365,0.36699295,0.4167985,0.14254221,0.11517629,inf,inf,inf,inf,1,1,1,1,2,0,2,1,5,1,1,1,0,0
6993384000,6993384000,1032000,41.606704,-86.3556021,-0.67504054,26.248058,-10.377101,0.00036031273,0.00019440363,0.0,0.015164509,2.5084038,-0.6622586,-0.7158895,-0.00056974834,-0.012147613,-0.016767163,0.013224033,0.03155129,0.061427172,-1.2314779,0.002913286,229.39902,10.588084,0.37017995,0.416372,0.1443205,0.115560085,inf,inf,inf,inf,1,1,1,1,2,0,2,1,5,1,1,1,0,0
6993888000,6993888000,1032000,41.606704,-86.3556021,-0.6757953,27.50636,-10.729011,0.00036031273,0.00019440363,0.0,0.018900646,2.5212657,-0.6688675,-0.714176,-0.00056974834,-0.012147613,-0.016767163,0.060147475,0.060964964,0.060919605,-1.2369668,0.002913286,229.39902,10.939994,0.37302673,0.41885278,0.14563476,0.116186626,inf,inf,inf,inf,1,1,1,1,2,0,2,1,5,1,1,1,0,0
6994384000,6994384000,1032000,41.606704,-86.3556021,-0.67570055,28.747288,-11.078977,0.00036031273,0.00019440363,0.0,0.019702673,2.5178201,-0.67106444,-0.7132778,-0.00056974834,-0.012147613,-0.016767163,0.0917165,0.044353195,-0.04439062,-1.2451861,0.002913286,229.39902,11.28996,0.37492877,0.41772762,0.14640385,0.11622116,inf,inf,inf,inf,1,1,1,1,2,0,2,1,5,1,1,1,0,0
6994888000,6994888000,1032000,41.606704,-86.3556021,-0.6778277,29.99902,-11.445621,0.00036031273,0.00019440363,0.0,0.017634742,2.5026305,-0.65738523,-0.7053754,-0.00056974834,-0.012147613,-0.016767163,0.02961457,-0.15876612,-0.024460318,-1.2526798,0.002913286,229.39902,11.656604,0.37856337,0.4203345,0.14828794,0.11696918,inf,inf,inf,inf,1,1,1,1,2,0,2,1,5,1,1,1,0,0
6995384000,6995384000,1032000,41.606704,-86.3556021,-0.6786144,31.200924,-11.785934,0.00036031273,0.00019440363,0.0,0.022049917,2.3376122,-0.6294445,-0.6720891,-0.00056974834,-0.012147613,-0.016767163,-0.103494525,-0.8897751,0.69345987,-1.2602098,0.002913286,229.39902,11.996918,0.37969822,0.4191285,0.14819685,0.11685252,inf,inf,inf,inf,1,1,1,1,2,0,2,1,5,1,1,1,0,0
6995888000,6995888000,1032000,41.606704,-86.3556021,-0.6791337,32.239132,-12.095835,0.00036031273,0.00019440363,0.0,0.02400831,1.7526045,-0.48316538,-0.5231521,-0.00056974834,-0.012147613,-0.016767163,0.07568202,-1.5498728,0.5693239,-1.2657608,0.002913286,229.39902,12.306818,0.36206928,0.41304183,0.1396328,0.11344749,inf,inf,inf,inf,1,1,1,1,2,0,2,1,5,1,1,1,0,0
6996384000,6996384000,1032000,41.606704,-86.3556021,-0.68515,32.912544,-12.293139,0.00036031273,0.00019440363,0.0,0.0244719,0.99643254,-0.27259147,-0.3074605,-0.00056974834,-0.012147613,-0.016767163,0.09006744,-1.3897271,0.43424955,-1.2658337,0.002913286,229.39902,12.504123,0.38595244,0.42098442,0.15194811,0.11788518,inf,inf,inf,inf,1,1,1,1,2,0,2,1,5,1,1,1,0,0
6996888000,6996888000,1032000,41.606704,-86.3556021,-0.70774674,33.250122,-12.418202,0.00036031273,0.00019440363,0.0,0.024686567,0.4361689,-0.1481281,-0.18540314,-0.00056974834,-0.012147613,-0.016767163,-0.019404927,-0.815646,0.086381964,-1.2718121,0.002913286,229.39902,12.629186,0.36656722,0.41464138,0.14256139,0.1143781,inf,inf,inf,inf,1,1,1,1,2,0,2,1,5,1,1,1,0,0
6997384000,6997384000,1032000,41.606704,-86.3556021,-0.7426312,33.35762,-12.479216,0.00036031273,0.00019440363,0.0,0.041899387,0.1332595,-0.086456835,-0.1124405,-0.00056974834,-0.012147613,-0.016767163,0.18763587,-0.3087569,0.26108596,-1.273806,0.002913286,229.39902,12.690199,0.3692469,0.41660324,0.14384569,0.11523176,inf,inf,inf,inf,1,1,1,1,2,0,2,1,5,1,1,1,0,0
6997880000,6997880000,1032000,41.606704,-86.3556021,-0.7518002,33.3632,-12.514614,0.00036031273,0.00019440363,0.0,0.0650874,0.022429232,-0.05255941,-0.07064002,-0.00056974834,-0.012147613,-0.016767163,0.114530414,-0.09504391,0.1196162,-1.2775362,0.002913286,229.39902,12.725597,0.37034476,0.41540587,0.14322454,0.1155033,inf,inf,inf,inf,1,1,1,1,2,0,2,1,5,1,1,1,0,0
6998384000,6998384000,1032000,41.606704,-86.3556021,-0.7591581,33.332623,-12.521079,0.00036031273,0.00019440363,0.0,0.032306023,-0.020230262,0.03761365,0.027028603,-0.00056974834,-0.012147613,-0.016767163,-0.17855409,-0.042327315,0.044980023,-1.2785754,0.002913286,229.39902,12.732062,0.37310013,0.41795057,0.14387028,0.11656839,inf,inf,inf,inf,1,1,1,1,2,0,2,1,5,1,1,1,0,0
6998888000,6998888000,1032000,41.606704,-86.3556021,-0.7764893,33.291885,-12.502692,0.00036031273,0.00019440363,0.0,0.001990201,-0.01998008,0.019535454,0.013627088,-0.00056974834,-0.012147613,-0.016767163,0.07098224,0.15904781,-0.059106447,-1.2787215,0.002913286,229.39902,12.7136755,0.37688002,0.41768765,0.14600253,0.11750571,inf,inf,inf,inf,1,1,1,1,2,0,2,1,5,1,1,1,0,0
6999384000,6999384000,1032000,41.606704,-86.3556021,-0.78453064,33.263042,-12.497415,0.00036031273,0.00019440363,0.0,0.006952981,0.0071263146,0.00075774855,-0.0042279186,-0.00056974834,-0.012147613,-0.016767163,0.01878113,0.12836863,0.028228322,-1.2782292,0.002913286,229.39902,12.708398,0.37820384,0.41952655,0.1464523,0.118193395,inf,inf,inf,inf,1,1,1,1,2,0,2,1,5,1,1,1,0,0
6999888000,6999888000,1032000,41.606704,-86.3556021,-0.7885561,33.254017,-12.487129,0.00036031273,0.00019440363,0.0,0.015368407,0.03867762,-0.013393698,-0.008007891,-0.00056974834,-0.012147613,-0.016767163,0.020319689,0.059444692,-0.029439168,-1.2785733,0.002913286,229.39902,12.6981125,0.3610616,0.41329795,0.13872683,0.114995986,inf,inf,inf,inf,1,1,1,1,2,0,2,1,5,1,1,1,0,0
7000384000,7000384000,1032000,41.606704,-86.3556021,-0.7845,33.26472,-12.48715,0.00036031273,0.00019440363,0.0,0.018888162,0.054356847,-0.021134563,-0.012470292,-0.00056974834,-0.012147613,-0.016767163,-1.863134e-05,0.043932684,-0.06736169,-1.2785203,0.002913286,229.39902,12.698133,0.38338292,0.42085484,0.14949529,0.119553134,inf,inf,inf,inf,1,1,1,1,2,0,2,1,5,1,1,1,0,0
7000888000,7000888000,1032000,41.606704,-86.3556021,-0.7698667,33.278927,-12.482556,0.00036031273,0.00019440363,0.0,0.012711134,0.053443335,-0.025625573,-0.009531311,-0.00056974834,-0.012147613,-0.016767163,-0.012497253,-0.0066213277,-0.032332785,-1.2790959,0.002913286,229.39902,12.69354,0.36477774,0.41440934,0.14063364,0.11602272,inf,inf,inf,inf,1,1,1,1,2,0,2,1,5,1,1,1,0,0
7001384000,7001384000,1032000,41.606704,-86.3556021,-0.7523457,33.292137,-12.47933,0.00036031273,0.00019440363,0.0,0.0018357981,0.048045784,-0.033000294,-0.0102669485,-0.00056974834,-0.012147613,-0.016767163,0.016732788,0.037143476,-0.10102807,-1.2793874,0.002913286,229.39902,12.690313,0.3675992,0.41645178,0.14250831,0.116889454,inf,inf,inf,inf,1,1,1,1,2,0,2,1,5,1,1,1,0,0
7001888000,7001888000,1032000,41.606704,-86.3556021,-0.7346696,33.313778,-12.4836855,0.00036031273,0.00019440363,0.0,-0.009433508,0.045562685,-0.028876375,-0.006381011,-0.00056974834,-0.012147613,-0.016767163,-0.26166093,-0.053940147,0.727564,-1.2804468,0.002913286,229.39902,12.694669,0.3696117,0.4160215,0.14310215,0.11723707,inf,inf,inf,inf,1,1,1,1,2,0,2,1,5,1,1,1,0,0
7002384000,7002384000,1032000,41.606704,-86.3556021,-0.7185344,33.34137,-12.479879,0.00036031273,0.00019440363,0.0,-0.026888248,0.028461725,-0.03784932,-0.009245153,-0.00056974834,-0.012147613,-0.016767163,-0.026750118,-0.08448878,0.03674527,-1.280625,0.002913286,229.39902,12.690863,0.37192503,0.41810206,0.14428838,0.11793736,inf,inf,inf,inf,1,1,1,1,2,0,2,1,5,1,1,1,0,0
7002888000,7002888000,1032000,41.606704,-86.3556021,-0.7154797,33.361046,-12.479554,0.00036031273,0.00019440363,0.0,-0.041391082,0.009778866,-0.035666265,-0.0045031104,-0.00056974834,-0.012147613,-0.016767163,-0.037560984,-0.07715139,-0.024022596,-1.2802302,0.002913286,229.39902,12.690537,0.3745951,0.41776615,0.14532138,0.118368864,inf,inf,inf,inf,1,1,1,1,2,0,2,1,5,1,1,1,0,0
7003384000,7003384000,1032000,41.606704,-86.3556021,-0.71170676,33.368195,-12.471913,0.00036031273,0.00019440363,0.0,-0.04058174,-0.007878165,-0.042071976,-0.003238866,-0.00056974834,-0.012147613,-0.016767163,-0.013287866,-0.03249226,-0.067505114,-1.280601,0.002913286,229.39902,12.682897,0.37626353,0.4197028,0.14582492,0.11886229,inf,inf,inf,inf,1,1,1,1,2,0,2,1,5,1,1,1,0,0
7003888000,7003888000,1032000,41.606704,-86.3556021,-0.70817363,33.37171,-12.476671,0.00036031273,0.00019440363,0.0,-0.04501087,-0.012200383,-0.0456514,-0.009167108,-0.00056974834,-0.012147613,-0.016767163,-0.03572813,0.06960523,-0.03754633,-1.2806838,0.002913286,229.39902,12.6876545,0.3596261,0.41348633,0.13801777,0.115442894,inf,inf,inf,inf,1,1,1,1,2,0,2,1,5,1,1,1,0,0
7004384000,7004384000,1032000,41.606704,-86.3556021,-0.7113032,33.377228,-12.481153,0.00036031273,0.00019440363,0.0,-0.048423033,-0.012017695,-0.04478601,-0.009827375,-0.00056974834,-0.012147613,-0.016767163,0.021903759,0.038363736,-0.002153281,-1.2807426,0.002913286,229.39902,12.692136,0.3819023,0.4212087,0.14841847,0.119926326,inf,inf,inf,inf,1,1,1,1,2,0,2,1,5,1,1,1,0,0
7004888000,7004888000,1032000,41.606704,-86.3556021,-0.7081788,33.383446,-12.484352,0.00036031273,0.00019440363,0.0,-0.040259432,-0.014935534,-0.040192556,-0.00662813,-0.00056974834,-0.012147613,-0.016767163,-0.018907523,0.04915678,-0.08212222,-1.280491,0.002913286,229.39902,12.695335,0.36372468,0.41477436,0.13956927,0.11627726,inf,inf,inf,inf,1,1,1,1,2,0,2,1,5,1,1,1,0,0
7005384000,7005384000,1032000,41.606704,-86.3556021,-0.708679,33.382824,-12.486589,0.00036031273,0.00019440363,0.0,-0.045283597,-0.017424075,-0.03590371,-0.0035473949,-0.00056974834,-0.012147613,-0.016767163,-0.0942952,-0.030912858,-0.17741793,-1.2799616,0.002913286,229.39902,12.697573,0.3876148,0.4198028,0.15092023,0.12061467,inf,inf,inf,inf,1,1,1,1,2,0,2,1,5,1,1,1,0,0
7005888000,7005888000,1032000,41.606704,-86.3556021,-0.7140107,33.381557,-12.485769,0.00036031273,0.00019440363,0.0,-0.03886097,-0.017723477,-0.029725738,0.0044673276,-0.00056974834,-0.012147613,-0.016767163,0.05607849,0.060157567,-0.09881245,-1.2798839,0.002913286,229.39902,12.696753,0.36770293,0.41633236,0.14100847,0.117120646,inf,inf,inf,inf,1,1,1,1,2,0,2,1,5,1,1,1,0,0
7006384000,7006384000,1032000,41.606704,-86.3556021,-0.72175884,33.374973,-12.478092,0.00036031273,0.00019440363,0.0,-0.03645746,-0.020091176,-0.04207847,-0.0008793017,-0.00056974834,-0.012147613,-0.016767163,0.19220498,0.05581354,0.17742619,-1.2799512,0.002913286,229.39902,12.689075,0.37016332,0.41544974,0.14240074,0.11744459,inf,inf,inf,inf,1,1,1,1,2,0,2,1,5,1,1,1,0,0
7006888000,7006888000,1032000,41.606704,-86.3556021,-0.7360542,33.3736,-12.480459,0.00036031273,0.00019440363,0.0,-0.031818204,-0.013979896,-0.045233704,-0.0058242753,-0.00056974834,-0.012147613,-0.016767163,-0.07567638,0.0031424933,-0.5622777,-1.2797567,0.002913286,229.39902,12.6914425,0.37296405,0.41812828,0.1436714,0.11821943,inf,inf,inf,inf,1,1,1,1,2,0,2,1,5,1,1,1,0,0
7007384000,7007384000,1032000,41.606704,-86.3556021,-0.74061346,33.373314,-12.4758005,0.00036031273,0.00019440363,0.0,-0.016995782,-0.015987653,-0.042486094,0.00086914963,-0.00056974834,-0.012147613,-0.016767163,0.06456919,0.09981248,0.062039983,-1.2795141,0.002913286,229.39902,12.686784,0.37481984,0.42012537,0.14439452,0.11872923,inf,inf,inf,inf,1,1,1,1,2,0,2,1,5,1,1,1,0,0
7007888000,7007888000,1032000,41.606704,-86.3556021,-0.7410572,33.37072,-12.463992,0.00036031273,0.00019440363,0.0,-0.011049533,-0.015455255,-0.057710994,-0.0044098767,-0.00056974834,-0.012147613,-0.016767163,-0.0040366454,-0.0131136505,-0.09106478,-1.2799904,0.002913286,229.39902,12.674975,0.37839296,0.41976878,0.1463574,0.119247705,inf,inf,inf,inf,1,1,1,1,2,0,2,1,5,1,1,1,0,0
7008384000,7008384000,1032000,41.606704,-86.3556021,-0.7529112,33.365288,-12.4600315,0.00036031273,0.00019440363,0.0,-0.0092489235,-0.010114112,-0.059773188,-0.0024577754,-0.00056974834,-0.012147613,-0.016767163,0.09823814,0.04020352,-0.0039255875,-1.2796462,0.002913286,229.39902,12.671015,0.37949735,0.41858673,0.14637905,0.119214356,inf,inf,inf,inf,1,1,1,1,2,0,2,1,5,1,1,1,0,0
7008888000,7008888000,1032000,41.606704,-86.3556021,-0.7630336,33.36904,-12.447131,0.00036031273,0.00019440363,0.0,-0.0013770228,-0.005110531,-0.072047055,-0.0032327399,-0.00056974834,-0.012147613,-0.016767163,0.06724403,0.010348817,-0.014785739,-1.2793112,0.002913286,229.39902,12.658114,0.36199674,0.41522843,0.13821132,0.11599423,inf,inf,inf,inf,1,1,1,1,2,0,2,1,5,1,1,1,0,0
7009384000,7009384000,1032000,41.606704,-86.3556021,-0.76836604,33.37319,-12.453199,0.00036031273,0.00019440363,0.0,0.008215869,-0.009029582,-0.075396374,-0.011966783,-0.00056974834,-0.012147613,-0.016767163,0.058752224,-0.03404669,0.026932852,-1.2793647,0.002913286,229.39902,12.664183,0.3856726,0.42319915,0.14962156,0.12068806,inf,inf,inf,inf,1,1,1,1,2,0,2,1,5,1,1,1,0,0
7009888000,7009888000,1032000,41.606704,-86.3556021,-0.77197766,33.384735,-12.460772,0.00036031273,0.00019440363,0.0,0.015534525,-0.009324551,-0.06292485,-0.004211224,-0.00056974834,-0.012147613,-0.016767163,0.07009793,-0.024385104,0.018029409,-1.2794297,0.002913286,229.39902,12.671755,0.3664219,0.4164416,0.14014512,0.11684018,inf,inf,inf,inf,1,1,1,1,2,0,2,1,5,1,1,1,0,0
7010384000,7010384000,1032000,41.606704,-86.3556021,-0.7728365,33.39282,-12.463071,0.00036031273,0.00019440363,0.0,0.020422213,-0.018356413,-0.061115205,-0.0047941585,-0.00056974834,-0.012147613,-0.016767163,-0.13249591,-0.028382089,-0.11639769,-1.2793306,0.002913286,229.39902,12.674054,0.36908507,0.41839635,0.14167881,0.11753978,inf,inf,inf,inf,1,1,1,1,2,0,2,1,5,1,1,1,0,0
7010888000,7010888000,1032000,41.606704,-86.3556021,-0.77462995,33.391037,-12.476079,0.00036031273,0.00019440363,0.0,0.016141763,-0.023797503,-0.046798445,-0.0013847295,-0.00056974834,-0.012147613,-0.016767163,0.009672681,0.05223586,-0.13288115,-1.2790353,0.002913286,229.39902,12.687062,0.37086356,0.41786933,0.1420055,0.117736824,inf,inf,inf,inf,1,1,1,1,2,0,2,1,5,1,1,1,0,0
7011384000,7011384000,1032000,41.606704,-86.3556021,-0.78474575,33.387623,-12.473355,0.00036031273,0.00019440363,0.0,0.020208336,-0.022211708,-0.046169218,0.0023048725,-0.00056974834,-0.012147613,-0.016767163,0.13315338,0.067706704,0.21635361,-1.2792522,0.002913286,229.39902,12.684339,0.37296966,0.41687107,0.14305326,0.117970854,inf,inf,inf,inf,1,1,1,1,2,0,2,1,5,1,1,1,0,0
7011888000,7011888000,1032000,41.606704,-86.3556021,-0.7956952,33.383106,-12.467176,0.00036031273,0.00019440363,0.0,0.029481411,-0.020780131,-0.053223778,-0.0004925273,-0.00056974834,-0.012147613,-0.016767163,0.031218283,0.05348781,-0.03385829,-1.2793534,0.002913286,229.39902,12.67816,0.37667447,0.41967776,0.1451942,0.118947,inf,inf,inf,inf,1,1,1,1,2,0,2,1,5,1,1,1,0,0
7012384000,7012384000,1032000,41.606704,-86.3556021,-0.79866344,33.377422,-12.475773,0.00036031273,0.00019440363,0.0,0.036526382,-0.020410178,-0.050078947,-0.004433299,-0.00056974834,-0.012147613,-0.016767163,0.053536244,-0.0056004,0.028964067,-1.2793475,0.002913286,229.39902,12.686756,0.3780115,0.4185649,0.14544187,0.11898838,inf,inf,inf,inf,1,1,1,1,2,0,2,1,5,1,1,1,0,0
7012888000,7012888000,1032000,41.606704,-86.3556021,-0.80745864,33.375927,-12.477762,0.00036031273,0.00019440363,0.0,0.04095,-0.013666227,-0.047215544,-0.0030978518,-0.00056974834,-0.012147613,-0.016767163,0.03183613,-0.04250898,0.010350656,-1.2796266,0.002913286,229.39902,12.6887455,0.3609355,0.415227,0.13752079,0.11582799,inf,inf,inf,inf,1,1,1,1,2,0,2,1,5,1,1,1,0,0
7013384000,7013384000,1032000,41.606704,-86.3556021,-0.7999068,33.376575,-12.478637,0.00036031273,0.00019440363,0.0,0.029857267,-0.004102548,0.00077895715,0.038283616,-0.00056974834,-0.012147613,-0.016767163,-0.04924404,0.08690507,-0.011921923,-1.2794353,0.002913286,229.39902,12.68962,0.3831743,0.42299384,0.1476056,0.120274164,inf,inf,inf,inf,1,1,1,1,2,0,2,1,5,1,1,1,0,0
7013888000,7013888000,1032000,41.606704,-86.3556021,-0.8105953,33.385056,-12.454927,0.00036031273,0.00019440363,0.0,0.019827094,0.008382346,-0.020718947,0.022702686,-0.00056974834,-0.012147613,-0.016767163,0.16931367,-0.09501497,-0.17661327,-1.2799286,0.002913286,229.39902,12.665911,0.36465362,0.41637188,0.13890949,0.116532005,inf,inf,inf,inf,1,1,1,1,2,0,2,1,5,1,1,1,0,0
7014384000,7014384000,1032000,41.606704,-86.3556021,-0.7849678,33.387913,-12.446666,0.00036031273,0.00019440363,0.0,0.2308344,0.007657197,-0.059343144,-0.011943614,-0.00056974834,-0.012147613,-0.016767163,0.88547313,0.021263488,-0.11934625,-1.2809883,0.002913286,229.39902,12.657649,0.36751357,0.41539994,0.1408896,0.116937794,inf,inf,inf,inf,1,1,1,1,2,0,2,1,5,1,1,1,0,0
7014888000,7014888000,1032000,41.606704,-86.3556021,-0.55757296,33.385616,-12.462974,0.00036031273,0.00019440363,0.0,0.85462487,0.0077900593,-0.11817201,-0.067816645,-0.00056974834,-0.012147613,-0.016767163,1.6467085,0.104009755,-0.11020532,-1.2844465,0.002913286,229.39902,12.673957,0.36950138,0.41788548,0.14204659,0.11743522,inf,inf,inf,inf,1,1,1,1,2,0,2,1,5,1,1,1,0,0
7015384000,7015384000,1032000,41.606704,-86.3556021,0.012551242,33.372826,-12.498377,0.00036031273,0.00019440363,0.0,1.6063529,0.010361638,-0.15645406,-0.098555505,-0.00056974834,-0.012147613,-0.016767163,1.4494755,0.04186909,-0.0026971733,-1.2865384,0.002913286,229.39902,12.70936,0.37180015,0.41685867,0.1444576,0.11743645,inf,inf,inf,inf,1,1,1,1,2,0,2,1,5,1,1,1,0,0
7015888000,7015888000,1032000,41.606704,-86.3556021,0.9319997,33.357597,-12.543599,0.00036031273,0.00019440363,0.0,2.1342504,0.029825255,-0.12976064,-0.07405474,-0.00056974834,-0.012147613,-0.016767163,0.8053893,0.043626186,-0.023390228,-1.2847471,0.002913286,229.39902,12.754582,0.37443957,0.4193881,0.14608213,0.11787872,inf,inf,inf,inf,1,1,1,1,2,0,2,1,5,1,1,1,0,0
7016384000,7016384000,1032000,41.606704,-86.3556021,2.0482583,33.339527,-12.570738,0.00036031273,0.00019440363,0.0,2.4047325,0.042876218,-0.078173764,-0.026163211,-0.00056974834,-0.012147613,-0.016767163,0.44581863,0.0848329,-0.4200265,-1.2883221,0.002913286,229.39902,12.781721,0.37610388,0.41831318,0.14620346,0.117815554,inf,inf,inf,inf,1,1,1,1,2,0,2,1,5,1,1,1,0,0
7016880000,7016880000,1032000,41.606704,-86.3556021,3.2557788,33.31845,-12.578907,0.00036031273,0.00019440363,0.0,2.5054214,0.055266198,-0.042733513,0.004085713,-0.00056974834,-0.012147613,-0.016767163,0.12599957,0.10428938,0.09658553,-1.2925168,0.002913286,229.39902,12.78989,0.35886618,0.41448432,0.13738225,0.11454049,inf,inf,inf,inf,1,1,1,1,2,0,2,1,5,1,1,1,0,0
7017384000,7017384000,1032000,41.606704,-86.3556021,4.527106,33.31516,-12.583176,0.00036031273,0.00019440363,0.0,2.5413368,0.076095216,-0.013345736,0.021747775,-0.00056974834,-0.012147613,-0.016767163,-0.005384034,0.027199471,-0.07465488,-1.3025827,0.002913286,229.39902,12.794159,0.3816968,0.4196415,0.1475553,0.11873528,inf,inf,inf,inf,1,1,1,1,2,0,2,1,5,1,1,1,0,0
7017888000,7017888000,1032000,41.606704,-86.3556021,5.8057637,33.32068,-12.581477,0.00036031273,0.00019440363,0.0,2.5604596,0.07325234,-0.0023439138,0.022952933,-0.00056974834,-0.012147613,-0.016767163,0.02826953,-0.004100564,0.047764678,-1.315708,0.002913286,229.39902,12.79246,0.36359605,0.4161251,0.13869992,0.115506776,inf,inf,inf,inf,1,1,1,1,2,0,2,1,5,1,1,1,0,0
7018384000,7018384000,1032000,41.606704,-86.3556021,7.0759354,33.33653,-12.580393,0.00036031273,0.00019440363,0.0,2.5623226,0.075270936,0.0048618503,0.020581938,-0.00056974834,-0.012147613,-0.016767163,-0.025270864,0.058970526,0.008108962,-1.322366,0.002913286,229.39902,12.791376,0.38730052,0.42099604,0.14994587,0.11981324,inf,inf,inf,inf,1,1,1,1,2,0,2,1,5,1,1,1,0,0
7018888000,7018888000,1032000,41.606704,-86.3556021,8.347375,33.35383,-12.57942,0.00036031273,0.00019440363,0.0,2.545573,0.06098098,0.010243119,0.017140679,-0.00056974834,-0.012147613,-0.016767163,0.038420003,0.017581405,-0.602548,-1.3426329,0.002913286,229.39902,12.790403,0.36751544,0.4145204,0.1403832,0.116052665,inf,inf,inf,inf,1,1,1,1,2,0,2,1,5,1,1,1,0,0
7019384000,7019384000,1032000,41.606704,-86.3556021,9.588584,33.369617,-12.574875,0.00036031273,0.00019440363,0.0,2.5479982,0.043070495,0.004370723,0.010340249,-0.00056974834,-0.012147613,-0.016767163,0.016718868,-0.020865748,-0.057513885,-1.3541905,0.002913286,229.39902,12.785858,0.369992,0.41648385,0.14210893,0.11673803,inf,inf,inf,inf,1,1,1,1,2,0,2,1,5,1,1,1,0,0
7019888000,7019888000,1032000,41.606704,-86.3556021,10.853406,33.382393,-12.581416,0.00036031273,0.00019440363,0.0,2.548573,0.03518135,0.0036592826,0.001909323,-0.00056974834,-0.012147613,-0.016767163,-0.4199161,0.034487452,0.731619,-1.362697,0.002913286,229.39902,12.792399,0.3727615,0.4189869,0.14366573,0.1174742,inf,inf,inf,inf,1,1,1,1,2,0,2,1,5,1,1,1,0,0
7020384000,7020384000,1032000,41.606704,-86.3556021,12.06088,33.406834,-12.580675,0.00036031273,0.00019440363,0.0,2.3749812,0.027506474,0.049035788,0.040160283,-0.00056974834,-0.012147613,-0.016767163,-0.62480396,-0.08266906,0.12924144,-1.38584,0.002913286,229.39902,12.791658,0.37460327,0.41784093,0.1447196,0.11760776,inf,inf,inf,inf,1,1,1,1,2,0,2,1,5,1,1,1,0,0
7020888000,7020888000,1032000,41.606704,-86.3556021,13.105913,33.430508,-12.561994,0.00036031273,0.00019440363,0.0,1.7998726,0.0072402433,0.07988791,0.06191564,-0.00056974834,-0.012147613,-0.016767163,-1.298478,-0.027048849,-0.61668175,-1.3964846,0.002913286,229.39902,12.772977,0.37816063,0.42036873,0.14792037,0.11845007,inf,inf,inf,inf,1,1,1,1,2,0,2,1,5,1,1,1,0,0
7021384000,7021384000,1032000,41.606704,-86.3556021,13.799262,33.449898,-12.545203,0.00036031273,0.00019440363,0.0,1.0462172,-0.004202242,0.058215827,0.0328297,-0.00056974834,-0.012147613,-0.016767163,-1.4385506,-0.03085051,-0.09052089,-1.4016798,0.002913286,229.39902,12.7561865,0.37923807,0.42199254,0.1500803,0.11861289,inf,inf,inf,inf,1,1,1,1,2,0,2,1,5,1,1,1,0,0
7021888000,7021888000,1032000,41.606704,-86.3556021,14.148068,33.48565,-12.548118,0.00036031273,0.00019440363,0.0,0.470253,-0.01781454,0.020216478,-0.011281559,-0.00056974834,-0.012147613,-0.016767163,-0.7854763,-0.107925,0.028657662,-1.424797,0.002913286,229.39902,12.759101,0.36176032,0.41542655,0.14250825,0.11490877,inf,inf,inf,inf,1,1,1,1,2,0,2,1,5,1,1,1,0,0
7022384000,7022384000,1032000,41.606704,-86.3556021,14.269609,33.504406,-12.554727,0.00036031273,0.00019440363,0.0,0.1564967,-0.04856735,0.0127538135,-0.016036706,-0.00056974834,-0.012147613,-0.016767163,-0.41242358,-0.053997464,-0.04148396,-1.4394808,0.002913286,229.39902,12.76571,0.38411182,0.4228666,0.15298335,0.11908949,inf,inf,inf,inf,1,1,1,1,2,0,2,1,5,1,1,1,0,0
7022888000,7022888000,1032000,41.606704,-86.3556021,14.257751,33.520382,-12.553102,0.00036031273,0.00019440363,0.0,0.032240853,-0.065247774,0.0041949456,-0.013865478,-0.00056974834,-0.012147613,-0.016767163,-0.052905917,-0.044218104,-0.058895037,-1.4518456,0.002913286,229.39902,12.764085,0.3651874,0.41613367,0.1421146,0.11541712,inf,inf,inf,inf,1,1,1,1,2,0,2,1,5,1,1,1,0,0
7023384000,7023384000,1032000,41.606704,-86.3556021,14.210709,33.529537,-12.534542,0.00036031273,0.00019440363,0.0,-0.030821389,-0.03243683,0.044314995,0.041418273,-0.00056974834,-0.012147613,-0.016767163,-0.22799806,0.17165804,-0.15795235,-1.4575872,0.002913286,229.39902,12.745525,0.36794338,0.41788003,0.14263465,0.11620088,inf,inf,inf,inf,1,1,1,1,2,0,2,1,5,1,1,1,0,0
7023888000,7023888000,1032000,41.606704,-86.3556021,14.148297,33.548275,-12.509639,0.00036031273,0.00019440363,0.0,-0.06155211,-0.014592253,0.056287166,0.058014613,-0.00056974834,-0.012147613,-0.016767163,0.027335892,-0.17331867,0.11584435,-1.456393,0.002913286,229.39902,12.720622,0.36987957,0.41707826,0.14246267,0.11652911,inf,inf,inf,inf,1,1,1,1,2,0,2,1,5,1,1,1,0,0
7024384000,7024384000,1032000,41.606704,-86.3556021,14.05983,33.534405,-12.4286175,0.00036031273,0.00019440363,0.0,-0.1807751,-0.2085604,0.2769476,0.27909258,-0.00056974834,-0.012147613,-0.016767163,-0.17521453,-0.7499143,0.57272327,-1.461131,0.002913286,229.39902,12.639601,0.3720824,0.41885608,0.14266077,0.11724566,inf,inf,inf,inf,1,1,1,1,2,0,2,1,5,1,1,1,0,0
7024888000,7024888000,1032000,41.606704,-86.3556021,13.875343,33.315643,-12.244385,0.00036031273,0.00019440363,0.0,-0.4578916,-0.80903417,0.3940384,0.40119416,-0.00056974834,-0.012147613,-0.016767163,-0.5661557,-1.517068,0.10354344,-1.4601855,0.002913286,229.39902,12.455368,0.37455586,0.41823694,0.14381903,0.11753802,inf,inf,inf,inf,1,1,1,1,2,0,2,1,5,1,1,1,0,0
7025384000,7025384000,1032000,41.606704,-86.3556021,13.55169,32.763557,-12.01345,0.00036031273,0.00019440363,0.0,-0.6903351,-1.5094953,0.45713642,0.48004046,-0.00056974834,-0.012147613,-0.016767163,-0.40773296,-1.2426119,0.18141784,-1.4673574,0.002913286,229.39902,12.224433,0.3760729,0.42005682,0.14533293,0.11778397,inf,inf,inf,inf,1,1,1,1,2,0,2,1,5,1,1,1,0,0
7025888000,7025888000,1032000,41.606704,-86.3556021,13.127443,31.886364,-11.714561,0.00036031273,0.00019440363,0.0,-0.8213389,-2.0193734,0.5458582,0.5942277,-0.00056974834,-0.012147613,-0.016767163,-0.10884419,-0.7775619,0.21160573,-1.4762789,0.002913286,229.39902,11.925545,0.35939306,0.4138171,0.13789994,0.11422964,inf,inf,inf,inf,1,1,1,1,2,0,2,1,5,1,1,1,0,0
7026384000,7026384000,1032000,41.606704,-86.3556021,12.6742935,30.81503,-11.387636,0.00036031273,0.00019440363,0.0,-0.8845498,-2.3092577,0.6210363,0.67655474,-0.00056974834,-0.012147613,-0.016767163,-0.03918747,-0.4281902,0.11125106,-1.4781799,0.002913286,229.39902,11.598619,0.38140848,0.42122924,0.14821538,0.11845566,inf,inf,inf,inf,1,1,1,1,2,0,2,1,5,1,1,1,0,0
7026888000,7026888000,1032000,41.606704,-86.3556021,12.1751585,29.606705,-11.014762,0.00036031273,0.00019440363,0.0,-0.9269204,-2.453405,0.67691135,0.74249846,-0.00056974834,-0.012147613,-0.016767163,-0.011101116,-0.10436178,0.012572791,-1.4834073,0.002913286,229.39902,11.225745,0.36338353,0.4146236,0.13926825,0.11485948,inf,inf,inf,inf,1,1,1,1,2,0,2,1,5,1,1,1,0,0
7027384000,7027384000,1032000,41.606704,-86.3556021,11.677312,28.363644,-10.624227,0.00036031273,0.00019440363,0.0,-0.93976533,-2.4983025,0.6893675,0.7648379,-0.00056974834,-0.012147613,-0.016767163,0.04715146,-0.11072528,0.014982123,-1.4718046,0.002913286,229.39902,10.83521,0.3870385,0.42223826,0.15064281,0.119481474,inf,inf,inf,inf,1,1,1,1,2,0,2,1,5,1,1,1,0,0
7027888000,7027888000,1032000,41.606704,-86.3556021,11.174527,27.073112,-10.224246,0.00036031273,0.00019440363,0.0,-0.95665985,-2.5243654,0.70279855,0.7844236,-0.00056974834,-0.012147613,-0.016767163,-0.097132005,-0.048121277,-0.01836295,-1.4725376,0.002913286,229.39902,10.435229,0.36732802,0.41557395,0.14104672,0.11576835,inf,inf,inf,inf,1,1,1,1,2,0,2,1,5,1,1,1,0,0
7028384000,7028384000,1032000,41.606704,-86.3556021,10.678982,25.804192,-9.825429,0.00036031273,0.00019440363,0.0,-0.97846985,-2.5279415,0.69317573,0.7816888,-0.00056974834,-0.012147613,-0.016767163,-0.03688104,-0.04792963,-0.12090715,-1.4634691,0.002913286,229.39902,10.036412,0.3697782,0.41734293,0.14286812,0.1164879,inf,inf,inf,inf,1,1,1,1,2,0,2,1,5,1,1,1,0,0
7028888000,7028888000,1032000,41.606704,-86.3556021,10.172768,24.513954,-9.424916,0.00036031273,0.00019440363,0.0,-0.9923492,-2.5199254,0.6839115,0.776385,-0.00056974834,-0.012147613,-0.016767163,-0.036228254,0.025819412,-0.054727368,-1.443976,0.002913286,229.39902,9.6359,0.37258714,0.41670343,0.14463602,0.11694611,inf,inf,inf,inf,1,1,1,1,2,0,2,1,5,1,1,1,0,0
7029384000,7029384000,1032000,41.606704,-86.3556021,9.675643,23.248842,-9.025183,0.00036031273,0.00019440363,0.0,-1.0079867,-2.515471,0.6731085,0.77669793,-0.00056974834,-0.012147613,-0.016767163,-0.12201322,0.011979168,-0.13149162,-1.443276,0.002913286,229.39902,9.236166,0.3744817,0.41849813,0.1458692,0.11749638,inf,inf,inf,inf,1,1,1,1,2,0,2,1,5,1,1,1,0,0
7029888000,7029888000,1032000,41.606704,-86.3556021,9.1712675,21.96795,-8.630526,0.00036031273,0.00019440363,0.0,-1.023012,-2.5083702,0.64724976,0.75511235,-0.00056974834,-0.012147613,-0.016767163,-0.010963032,0.03174516,-0.095525816,-1.4289783,0.002913286,229.39902,8.841509,0.37811548,0.41810787,0.14827363,0.118053004,inf,inf,inf,inf,1,1,1,1,2,0,2,1,5,1,1,1,0,0
7030384000,7030384000,1032000,41.606704,-86.3556021,8.673949,20.713469,-8.250165,0.00036031273,0.00019440363,0.0,-1.0247579,-2.4952247,0.64247495,0.75355715,-0.00056974834,-0.012147613,-0.016767163,-0.02811921,0.058233753,-0.12047222,-1.4116393,0.002913286,229.39902,8.461148,0.3792271,0.4198093,0.1485134,0.118343465,inf,inf,inf,inf,1,1,1,1,2,0,2,1,5,1,1,1,0,0
7030888000,7030888000,1032000,41.606704,-86.3556021,8.174397,19.4418,-7.86267,0.00036031273,0.00019440363,0.0,-1.0350386,-2.4912126,0.6359848,0.7528926,-0.00056974834,-0.012147613,-0.016767163,-0.055692043,-0.00058611,-0.0006091481,-1.4082415,0.002913286,229.39902,8.073653,0.3617522,0.41357434,0.14017643,0.11479351,inf,inf,inf,inf,1,1,1,1,2,0,2,1,5,1,1,1,0,0
7031384000,7031384000,1032000,41.606704,-86.3556021,7.67034,18.196405,-7.496523,0.00036031273,0.00019440363,0.0,-1.0543852,-2.489073,0.62401724,0.7342998,-0.00056974834,-0.012147613,-0.016767163,-0.04143064,0.04917387,-0.08426985,-1.3900363,0.002913286,229.39902,7.707506,0.38554686,0.42146245,0.15208511,0.11932116,inf,inf,inf,inf,1,1,1,1,2,0,2,1,5,1,1,1,0,0
7031888000,7031888000,1032000,41.606704,-86.3556021,7.1477866,16.938269,-7.1292963,0.00036031273,0.00019440363,0.0,-1.0495989,-2.476399,0.63606507,0.74028736,-0.00056974834,-0.012147613,-0.016767163,-0.043378547,0.07711287,-0.06304035,-1.3741972,0.002913286,229.39902,7.3402796,0.36630866,0.41502225,0.1422975,0.115496,inf,inf,inf,inf,1,1,1,1,2,0,2,1,5,1,1,1,0,0
7032384000,7032384000,1032000,41.606704,-86.3556021,6.6351075,15.695808,-6.76293,0.00036031273,0.00019440363,0.0,-1.048245,-2.4895756,0.63721067,0.7383625,-0.00056974834,-0.012147613,-0.016767163,-0.046180237,-0.04679872,-0.074435085,-1.368613,0.002913286,229.39902,6.973913,0.36904743,0.41423327,0.14386335,0.1157344,inf,inf,inf,inf,1,1,1,1,2,0,2,1,5,1,1,1,0,0
7032888000,7032888000,1032000,41.606704,-86.3556021,6.1131883,14.434194,-6.3983793,0.00036031273,0.00019440363,0.0,-1.0421258,-2.4899268,0.65386045,0.7466234,-0.00056974834,-0.012147613,-0.016767163,-0.081661984,-0.12406187,-0.06339519,-1.3482407,0.002913286,229.39902,6.6093626,0.37082702,0.41667125,0.14408205,0.11606868,inf,inf,inf,inf,1,1,1,1,2,0,2,1,5,1,1,1,0,0
7033384000,7033384000,1032000,41.606704,-86.3556021,5.595536,13.200372,-6.0328097,0.00036031273,0.00019440363,0.0,-1.0368043,-2.4871037,0.65362316,0.74243563,-0.00056974834,-0.012147613,-0.016767163,-0.06409561,-0.061403718,-0.105207846,-1.3340726,0.002913286,229.39902,6.243793,0.37300572,0.41856325,0.14515132,0.11640693,inf,inf,inf,inf,1,1,1,1,2,0,2,1,5,1,1,1,0,0
7033888000,7033888000,1032000,41.606704,-86.3556021,5.0677643,11.941774,-5.664553,0.00036031273,0.00019440363,0.0,-1.0221037,-2.489694,0.65833336,0.7415276,-0.00056974834,-0.012147613,-0.016767163,-0.04082143,-0.032360267,-0.17180857,-1.3210549,0.002913286,229.39902,5.8755364,0.37692222,0.41811943,0.14734729,0.11672537,inf,inf,inf,inf,1,1,1,1,2,0,2,1,5,1,1,1,0,0
7034384000,7034384000,1032000,41.606704,-86.3556021,4.546618,10.701275,-5.298524,0.00036031273,0.00019440363,0.0,-1.0196351,-2.4982471,0.66901374,0.7505937,-0.00056974834,-0.012147613,-0.016767163,0.006375416,-0.025559533,-0.12567458,-1.2988797,0.002913286,229.39902,5.509507,0.3782817,0.4197588,0.14743531,0.11682929,inf,inf,inf,inf,1,1,1,1,2,0,2,1,5,1,1,1,0,0
7034888000,7034888000,1032000,41.606704,-86.3556021,4.0024357,9.425692,-4.914654,0.00036031273,0.00019440363,0.0,-1.0167596,-2.508825,0.6685812,0.7553688,-0.00056974834,-0.012147613,-0.016767163,-0.10556947,-0.015701387,-0.10002038,-1.2896515,0.002913286,229.39902,5.125637,0.36110035,0.41630304,0.13918683,0.11357144,inf,inf,inf,inf,1,1,1,1,2,0,2,1,5,1,1,1,0,0
7035384000,7035384000,1032000,41.606704,-86.3556021,3.4778142,8.170414,-4.5466146,0.00036031273,0.00019440363,0.0,-0.9922965,-2.488488,0.66167814,0.7449313,-0.00056974834,-0.012147613,-0.016767163,0.03337272,-0.053500153,-0.13558944,-1.2724944,0.002913286,229.39902,4.757598,0.38344693,0.42074165,0.14968842,0.11713982,inf,inf,inf,inf,1,1,1,1,2,0,2,1,5,1,1,1,0,0
7035888000,7035888000,1032000,41.606704,-86.3556021,2.9575272,6.900367,-4.169569,0.00036031273,0.00019440363,0.0,-0.98018324,-2.4841897,0.6642265,0.74768335,-0.00056974834,-0.012147613,-0.016767163,0.00532363,0.025188679,-0.13589491,-1.2548637,0.002913286,229.39902,4.3805523,0.3647524,0.41706094,0.14051946,0.11372723,inf,inf,inf,inf,1,1,1,1,2,0,2,1,5,1,1,1,0,0
7036384000,7036384000,1032000,41.606704,-86.3556021,2.4450262,5.652407,-3.802279,0.00036031273,0.00019440363,0.0,-0.9838847,-2.4837859,0.66778487,0.74781984,-0.00056974834,-0.012147613,-0.016767163,0.08787701,0.041005485,-0.018513825,-1.2485332,0.002913286,229.39902,4.0132623,0.3675926,0.41577053,0.14225008,0.113820836,inf,inf,inf,inf,1,1,1,1,2,0,2,1,5,1,1,1,0,0
7036888000,7036888000,1032000,41.606704,-86.3556021,1.9243677,4.382253,-3.432194,0.00036031273,0.00019440363,0.0,-0.9879522,-2.4929752,0.6784555,0.75200564,-0.00056974834,-0.012147613,-0.016767163,0.15266149,0.02926983,-0.10084646,-1.2283782,0.002913286,229.39902,3.6431773,0.36960727,0.4179844,0.14271556,0.11415514,inf,inf,inf,inf,1,1,1,1,2,0,2,1,5,1,1,1,0,0
7037384000,7037384000,1032000,41.606704,-86.3556021,1.4137632,3.132749,-3.0660746,0.00036031273,0.00019440363,0.0,-0.97787476,-2.4843392,0.68059754,0.7486474,-0.00056974834,-0.012147613,-0.016767163,0.021109859,0.03332912,-0.12428598,-1.2051067,0.002913286,229.39902,3.277058,0.37191498,0.41678488,0.14391638,0.11418556,inf,inf,inf,inf,1,1,1,1,2,0,2,1,5,1,1,1,0,0
7037888000,7037888000,1032000,41.606704,-86.3556021,0.9053151,1.8805482,-2.7006958,0.00036031273,0.00019440363,0.0,-0.98013663,-2.4536173,0.7003185,0.7569215,-0.00056974834,-0.012147613,-0.016767163,0.018585537,0.14553212,-0.036027342,-1.1954863,0.002913286,229.39902,2.911679,0.37450546,0.41909838,0.144905,0.11464466,inf,inf,inf,inf,1,1,1,1,2,0,2,1,5,1,1,1,0,0
7038384000,7038384000,1032000,41.606704,-86.3556021,0.401757,0.6956992,-2.331735,0.00036031273,0.00019440363,0.0,-0.97385764,-2.2348726,0.7696776,0.8112721,-0.00056974834,-0.012147613,-0.016767163,0.041551337,0.9425531,0.7975762,-1.1827415,0.002913286,229.39902,2.5427182,0.3760986,0.41770416,0.14537776,0.11453217,inf,inf,inf,inf,1,1,1,1,2,0,2,1,5,1,1,1,0,0
7038888000,7038888000,1032000,41.606704,-86.3556021,-0.077598386,-0.3101353,-1.9401294,0.00036031273,0.00019440363,0.0,-0.8226944,-1.6097397,0.6625441,0.70012087,-0.00056974834,-0.012147613,-0.016767163,0.5143955,1.489606,-0.70444405,-1.1568668,0.002913286,229.39902,2.1511128,0.3594531,0.4144854,0.13854706,0.11165908,inf,inf,inf,inf,1,1,1,1,2,0,2,1,5,1,1,1,0,0
7039384000,7039384000,1032000,41.606704,-86.3556021,-0.42305246,-0.94247323,-1.6816196,0.00036031273,0.00019440363,0.0,-0.5166459,-0.8643298,0.32723457,0.3618747,-0.00056974834,-0.012147613,-0.016767163,0.6390629,1.3643123,-0.65238684,-1.1402473,0.002913286,229.39902,1.892603,0.38183862,0.41873565,0.15166786,0.11532988,inf,inf,inf,inf,1,1,1,1,2,0,2,1,5,1,1,1,0,0
7039888000,7039888000,1032000,41.606704,-86.3556021,-0.6096368,-1.2525467,-1.5707958,0.00036031273,0.00019440363,0.0,-0.22810765,-0.2973441,0.103586845,0.1328094,-0.00056974834,-0.012147613,-0.016767163,0.4890375,0.8394017,-0.30376765,-1.1179576,0.002913286,229.39902,1.7817792,0.36358932,0.4153329,0.14342172,0.112487,inf,inf,inf,inf,1,1,1,1,2,0,2,1,5,1,1,1,0,0
7040384000,7040384000,1032000,41.606704,-86.3556021,-0.665608,-1.3265386,-1.5410603,0.00036031273,0.00019440363,0.0,-0.051995132,0.007818504,0.015612889,0.037816264,-0.00056974834,-0.012147613,-0.016767163,0.23946229,0.34119725,-0.08868898,-1.0939878,0.002913286,229.39902,1.7520437,0.3878248,0.4198027,0.15510873,0.11670504,inf,inf,inf,inf,1,1,1,1,2,0,2,1,5,1,1,1,0,0
7040888000,7040888000,1032000,41.606704,-86.3556021,-0.65104496,-1.2915037,-1.5493354,0.00036031273,0.00019440363,0.0,0.015874447,0.10987607,0.008433066,0.013068913,-0.00056974834,-0.012147613,-0.016767163,-0.04386402,0.042375706,-0.09646366,-1.0948727,0.002913286,229.39902,1.7603188,0.367872,0.4162509,0.14329496,0.113993675,inf,inf,inf,inf,1,1,1,1,2,0,2,1,5,1,1,1,0,0
7041384000,7041384000,1032000,41.606704,-86.3556021,-0.61970073,-1.2294149,-1.4910417,0.00036031273,0.00019440363,0.0,0.03245192,0.12920396,0.5262193,0.5097408,-0.00056974834,-0.012147613,-0.016767163,-0.18118738,-0.14938553,2.8944275,-1.0972488,0.002913286,229.39902,1.702025,0.37039205,0.41510442,0.14236705,0.11481617,inf,inf,inf,inf,1,1,1,1,2,0,2,1,5,1,1,1,0,0
7041888000,7041888000,1032000,41.606704,-86.3556021,-0.5936435,-1.1829977,-1.1338149,0.00036031273,0.00019440363,0.0,0.0007736095,0.052710347,0.7531829,0.71952504,-0.00056974834,-0.012147613,-0.016767163,-0.15710273,-0.14924856,-0.65164644,-1.0967016,0.002913286,229.39902,1.3447983,0.37303647,0.41756663,0.14176299,0.11608917,inf,inf,inf,inf,1,1,1,1,2,0,2,1,5,1,1,1,0,0
7042384000,7042384000,1032000,41.606704,-86.3556021,-0.58623606,-1.1632787,-0.81991804,0.00036031273,0.00019440363,0.0,-0.02428316,0.012179355,0.6851434,0.6417745,-0.00056974834,-0.012147613,-0.016767163,-0.0670698,-0.074145176,0.11721898,-1.0948946,0.002913286,229.39902,1.0309014,0.3747629,0.41652295,0.14305003,0.11672059,inf,inf,inf,inf,1,1,1,1,2,0,2,1,5,1,1,1,0,0
7042888000,7042888000,1032000,41.606704,-86.3556021,-0.5904144,-1.1646577,-0.5103601,0.00036031273,0.00019440363,0.0,-0.03567965,-0.033159416,0.7102672,0.65587634,-0.00056974834,-0.012147613,-0.016767163,-0.00014115755,-0.08627002,0.089379884,-1.0939263,0.002913286,229.39902,0.7213435,0.37818494,0.41916293,0.1451546,0.117988676,inf,inf,inf,inf,1,1,1,1,2,0,2,1,5,1,1,1,0,0
7043384000,7043384000,1032000,41.606704,-86.3556021,-0.597291,-1.1853936,-0.18513353,0.00036031273,0.00019440363,0.0,-0.03240491,-0.050118472,0.7097879,0.6574942,-0.00056974834,-0.012147613,-0.016767163,-0.0072671818,-0.070899434,0.06016337,-1.0934601,0.002913286,229.39902,0.3961169,0.37914968,0.42092586,0.1455267,0.118594095,inf,inf,inf,inf,1,1,1,1,2,0,2,1,5,1,1,1,0,0
7043888000,7043888000,1032000,41.606704,-86.3556021,-0.60139275,-1.2086974,0.13910085,0.00036031273,0.00019440363,0.0,-0.036092773,-0.055126697,0.71140426,0.6547061,-0.00056974834,-0.012147613,-0.016767163,0.013978681,-0.01773418,0.082910925,-1.093612,0.002913286,229.39902,0.1,0.3617266,0.41457933,0.13781407,0.115286075,inf,inf,inf,inf,1,1,1,1,2,0,2,1,5,1,1,1,0,0
7044384000,7044384000,1032000,41.606704,-86.3556021,-0.6141313,-1.226779,0.28022292,0.00036031273,0.00019440363,0.0,-0.026776902,-0.0009566166,0.12413015,0.12949891,-0.00056974834,-0.012147613,-0.016767163,0.01842167,-0.06690526,-0.55409133,-1.0958368,0.002913286,229.39902,0.110589534,0.38528654,0.42191827,0.15200014,0.113645785,inf,inf,inf,inf,1,1,1,1,2,0,2,1,5,1,1,1,0,0
7044888000,7044888000,1032000,41.606704,-86.3556021,-0.617595,-1.236812,0.31363598,0.00036031273,0.00019440363,0.0,-0.026886273,-0.002099581,0.13167079,0.10424985,-0.00056974834,-0.012147613,-0.016767163,-0.06234361,-0.04702779,-0.52525103,-1.0945594,0.002913286,229.39902,0.1,0.36615685,0.41520146,0.144693,0.10411339,inf,inf,inf,inf,1,1,1,1,2,0,2,1,5,1,1,1,0,0
7045384000,7045384000,1032000,41.606704,-86.3556021,-0.6170928,-1.2408849,0.31021202,0.00036031273,0.00019440363,0.0,-0.019177128,-0.004957406,0.12809134,0.057641264,-0.00056974834,-0.012147613,-0.016767163,-0.06256,0.007088893,0.12013681,-1.0943147,0.002913286,229.39902,0.1,0.36889696,0.41312775,0.15027009,0.100791164,inf,inf,inf,inf,1,1,1,1,2,0,2,1,5,1,1,1,0,0
7045880000,7045880000,1032000,41.606704,-86.3556021,-0.61865085,-1.2415984,0.32054016,0.00036031273,0.00019440363,0.0,-0.008694642,-0.005839721,0.13423987,0.04917691,-0.00056974834,-0.012147613,-0.016767163,0.08947212,-0.018250607,0.28130963,-1.0943786,0.002913286,229.39902,0.1,0.3701033,0.41358426,0.15351619,0.099745244,inf,inf,inf,inf,1,1,1,1,2,0,2,1,5,1,1,1,0,0
7046384000,7046384000,1032000,41.606704,-86.3556021,-0.6152892,-1.2406307,0.31971803,0.00036031273,0.00019440363,0.0,-0.0068716705,-0.0061442475,0.12780622,0.02606856,-0.00056974834,-0.012147613,-0.016767163,-0.009119296,0.047092065,0.28109914,-1.0941778,0.002913286,229.39902,0.1,0.3732329,0.41148055,0.15756778,0.100300245,inf,inf,inf,inf,1,1,1,1,2,0,2,1,5,0,1,1,1,0
7046888000,7046888000,1032000,41.606704,-86.3556021,-0.6099215,-1.2401557,0.21039994,0.00036031273,0.00019440363,0.0,-0.00060219073,-0.003843553,0.077934794,-0.13389784,-0.00056974834,-0.012147613,-0.016767163,0.018229123,0.065665215,-0.045212045,-1.0940553,0.002913286,229.39902,0.1,0.30212563,0.32211608,0.014390425,0.0105431415,inf,inf,inf,inf,1,1,1,1,2,0,2,1,5,0,1,1,1,0
7047384000,7047384000,1032000,41.606704,-86.3556021,-0.60210854,-1.2392564,0.00791939,0.00036031273,0.00019440363,0.0,0.0029628105,0.00073723175,0.0022240109,-0.27289835,-0.00056974834,-0.012147613,-0.016767163,-0.05685283,0.0136194145,-0.37450254,-1.0939128,0.002913286,229.39902,0.110058635,0.28382948,0.30820593,0.019872898,0.014067848,inf,inf,inf,inf,1,1,1,1,2,0,2,1,5,0,1,1,1,0
7047888000,7047888000,1032000,41.606704,-86.3556021,-0.598813,-1.233932,-0.008269828,0.00036031273,0.00019440363,0.0,0.0063069626,0.0048871413,-0.0060082152,-0.16950734,-0.00056974834,-0.012147613,-0.016767163,-0.014905993,-0.0385417,0.027344497,-1.0938413,0.002913286,229.39902,0.14493002,0.2649608,0.29560906,0.0107643595,0.00764241,inf,inf,inf,inf,1,1,1,1,2,0,2,1,5,0,1,1,1,0
7048384000,7048384000,1032000,41.606704,-86.3556021,-0.59253997,-1.2302703,0.008429868,0.00036031273,0.00019440363,0.0,0.007820192,0.0010985108,-0.008308833,-0.08698124,-0.00056974834,-0.012147613,-0.016767163,-0.035366308,-0.057487424,0.015865946,-1.0935384,0.002913286,229.39902,0.13885055,0.25933644,0.28681132,0.01705268,0.012203091,inf,inf,inf,inf,1,1,1,1,2,0,2,1,5,0,1,1,1,0
7048888000,7048888000,1032000,41.606704,-86.3556021,-0.5918735,-1.2308847,0.027046755,0.00036031273,0.00019440363,0.0,-0.0011281812,0.0009997353,-0.006645957,-0.037852407,-0.00056974834,-0.012147613,-0.016767163,0.050938983,0.06410042,0.0086696185,-1.093312,0.002913286,229.39902,0.13105313,0.24644652,0.27809298,0.0058027725,0.0041112,inf,inf,inf,inf,1,1,1,1,2,0,2,1,5,0,1,1,1,0
