timestamp,timestamp_sample,ref_timestamp,ref_lat,ref_lon,x,y,z,delta_xy[0],delta_xy[1],delta_z,vx,vy,vz,z_deriv,delta_vxy[0],delta_vxy[1],delta_vz,ax,ay,az,heading,delta_heading,ref_alt,dist_bottom,eph,epv,evh,evv,vxy_max,vz_max,hagl_min,hagl_max,xy_valid,z_valid,v_xy_valid,v_z_valid,xy_reset_counter,z_reset_counter,vxy_reset_counter,vz_reset_counter,heading_reset_counter,heading_good_for_control,xy_global,z_global,dist_bottom_valid,dist_bottom_sensor_bitfield
6971388000,6971388000,1036000,41.606704,-86.3556021,-0.6452648,-1.3878391,0.11216661,0.00034485216,0.00015009663,0.0,-0.00078326336,-0.0025693243,0.00041562106,-0.0008905334,-0.00075083744,-0.012200711,-0.0165996,0.05245828,-0.010706023,0.046397496,-1.0531135,0.00955811,229.39903,0.1,0.08485686,0.10244354,0.009056167,0.0064423885,inf,inf,inf,inf,1,1,1,1,2,0,2,1,4,0,1,1,1,0
6971884000,6971884000,1036000,41.606704,-86.3556021,-0.6460306,-1.3872172,0.11036161,0.00034485216,0.00015009663,0.0,-0.0015594055,-0.0015336663,0.0010355399,-8.0750935e-05,-0.00075083744,-0.012200711,-0.0165996,0.019813092,-0.02051833,0.60067314,-1.052458,0.00955811,229.39903,0.10045413,0.08457745,0.10206116,0.015852915,0.011401592,inf,inf,inf,inf,1,1,1,1,2,0,2,1,4,0,1,1,1,0
6972388000,6972388000,1036000,41.606704,-86.3556021,-0.64574313,-1.3865428,0.11081459,0.00034485216,0.00015009663,0.0,0.00044603142,0.0004768709,0.0005664376,0.00037396836,-0.00075083744,-0.012200711,-0.0165996,-0.033385996,-0.05144682,-0.13504182,-1.0522656,0.00955811,229.39903,0.10044895,0.08429758,0.10172434,0.0014142136,0.001,inf,inf,inf,inf,1,1,1,1,2,0,2,1,4,0,1,1,1,0
6972892000,6972892000,1036000,41.606704,-86.3556021,-0.64525646,-1.3869684,0.11194423,0.00034485216,0.00015009663,0.0,0.0025216923,-0.0006823957,0.0022161074,0.002128331,-0.00075083744,-0.012200711,-0.0165996,-0.019669479,0.08955649,0.03997696,-1.0518415,0.00955811,229.39903,0.10008663,0.08402059,0.10134861,0.013492513,0.009664793,inf,inf,inf,inf,1,1,1,1,2,0,2,1,4,0,1,1,1,0
6973388000,6973388000,1036000,41.606704,-86.3556021,-0.6452431,-1.387171,0.11292846,0.00034485216,0.00015009663,0.0,-0.002065988,-0.0007420515,0.0051894793,0.0040777638,-0.00075083744,-0.012200711,-0.0165996,-0.043124616,-0.02458044,0.4521654,-1.0516607,0.00955811,229.39903,0.1,0.08375997,0.10102504,0.01894851,0.0137080485,inf,inf,inf,inf,1,1,1,1,2,0,2,1,4,0,1,1,1,0
6973884000,6973884000,1036000,41.606704,-86.3556021,-0.6459666,-1.3876177,0.11147926,0.00034485216,0.00015009663,0.0,-0.0024162212,-0.003337369,0.00056947244,-0.0008767481,-0.00075083744,-0.012200711,-0.0165996,-0.0061062262,-0.08593025,-0.022965545,-1.0517138,0.00955811,229.39903,0.1,0.08333237,0.10065198,0.009055655,0.0064423895,inf,inf,inf,inf,1,1,1,1,2,0,2,1,4,0,1,1,1,0
6974388000,6974388000,1036000,41.606704,-86.3556021,-0.64693505,-1.3877555,0.11228881,0.00034485216,0.00015009663,0.0,-0.0016772872,-0.003474223,0.008112738,0.006669691,-0.00075083744,-0.012200711,-0.0165996,-0.048290346,-0.06853528,0.0064735594,-1.0518379,0.00955811,229.39903,0.1,0.08321445,0.100290574,0.016398145,0.011807214,inf,inf,inf,inf,1,1,1,1,2,0,2,1,4,0,1,1,1,0
6974884000,6974884000,1036000,41.606704,-86.3556021,-0.64473283,-1.3862054,0.111369155,0.00034485216,0.00015009663,0.0,0.0029904402,0.0026313073,7.379812e-05,-0.0016818402,-0.00075083744,-0.012200711,-0.0165996,-0.021388372,0.0666001,0.042968366,-1.0516219,0.00955811,229.39903,0.1,0.08280552,0.099970885,0.0014142136,0.001,inf,inf,inf,inf,1,1,1,1,2,0,2,1,4,0,1,1,1,0
6975388000,6975388000,1036000,41.606704,-86.3556021,-0.6451129,-1.3858675,0.11092833,0.00034485216,0.00015009663,0.0,-0.0015160003,0.0029363898,0.0018279592,0.0009500764,-0.00075083744,-0.012200711,-0.0165996,0.006644492,-0.003158037,0.122456744,-1.0513036,0.00955811,229.39903,0.10037723,0.08254435,0.09961476,0.013495455,0.009664785,inf,inf,inf,inf,1,1,1,1,2,0,2,1,4,0,1,1,1,0
6975884000,6975884000,1036000,41.606704,-86.3556021,-0.64644843,-1.385029,0.11070261,0.00034485216,0.00015009663,0.0,-0.00046871035,0.0073506306,-0.0015754747,-0.0018381398,-0.00075083744,-0.012200711,-0.0165996,0.04528502,-0.0052202265,-0.6370675,-1.0516145,0.00955811,229.39903,0.100820474,0.082299404,0.09930844,0.018940343,0.013705578,inf,inf,inf,inf,1,1,1,1,2,0,2,1,4,0,1,1,1,0
6976388000,6976388000,1036000,41.606704,-86.3556021,-0.64614445,-1.3859739,0.11026418,0.00034485216,0.00015009663,0.0,-0.0010392686,0.0031601186,8.553499e-05,9.7129865e-05,-0.00075083744,-0.012200711,-0.0165996,-0.073031135,-0.040594332,0.88598007,-1.051369,0.00955811,229.39903,0.100871444,0.08209206,0.0989811,0.023853699,0.017416421,inf,inf,inf,inf,1,1,1,1,2,0,2,1,4,0,1,1,1,0
6976892000,6976892000,1036000,41.606704,-86.3556021,-0.64749396,-1.3852925,0.110829756,0.00034485216,0.00015009663,0.0,-0.0077782986,0.005910146,0.005838947,0.006046486,-0.00075083744,-0.012200711,-0.0165996,-0.053521562,-0.0069837067,0.012632396,-1.0514891,0.00955811,229.39903,0.10030587,0.08391727,0.09966018,0.045742337,0.034513038,inf,inf,inf,inf,1,1,1,1,2,0,2,1,4,0,1,1,1,0
6977388000,6977388000,1036000,41.606704,-86.3556021,-0.6535994,-1.3748149,0.07795744,0.00034485216,0.00015009663,0.0,-0.020015463,0.04390622,-0.3406935,-0.3405088,-0.00075083744,-0.012200711,-0.0165996,-0.0958998,0.17921387,-1.9673657,-1.0581017,0.00955811,229.39903,0.13403757,0.09212755,0.10366207,0.06494674,0.04918282,inf,inf,inf,inf,1,1,1,1,2,0,2,1,4,0,1,1,1,0
6977892000,6977892000,1036000,41.606704,-86.3556021,-0.659576,-1.3511467,-0.34860587,0.00034485216,0.00015009663,0.0,-0.007310402,0.027717581,-1.3611548,-1.3593193,-0.00075083744,-0.012200711,-0.0165996,0.019905161,-0.09423937,-2.02848,-1.0575458,0.00955811,229.39903,0.5606009,0.10993092,0.11373691,0.08441463,0.06249983,inf,inf,inf,inf,1,1,1,1,2,0,2,1,4,0,1,1,1,0
6978388000,6978388000,1036000,41.606704,-86.3556021,-0.65771204,-1.3458503,-1.066702,0.00034485216,0.00015009663,0.0,0.005731466,-0.003786833,-1.2175413,-1.2161988,-0.00075083744,-0.012200711,-0.0165996,0.035345625,-7.0885566e-05,1.1754639,-1.0567255,0.00955811,229.39903,1.278697,0.14016773,0.13179004,0.102513865,0.07563654,inf,inf,inf,inf,1,1,1,1,2,0,2,1,4,0,1,1,1,0
6978892000,6978892000,1036000,41.606704,-86.3556021,-0.6531137,-1.3501072,-1.5460417,0.00034485216,0.00015009663,0.0,0.0037739784,-0.010429655,-0.7174702,-0.7190875,-0.00075083744,-0.012200711,-0.0165996,0.013666021,-0.0051949676,0.63854444,-1.048475,0.006171089,229.39903,1.7580367,0.17032984,0.15537688,0.105717555,0.08552001,inf,inf,inf,inf,1,1,1,1,2,0,2,1,5,0,1,1,1,0
6979388000,6979388000,1036000,41.606704,-86.3556021,-0.65079504,-1.3574722,-1.8297803,0.00034485216,0.00015009663,0.0,0.00282453,-0.012099721,-0.44327644,-0.44586444,-0.00075083744,-0.012200711,-0.0165996,-0.050618492,0.018186865,0.5748345,-1.0489652,0.006171089,229.39903,2.0417752,0.2085947,0.18673508,0.114997976,0.09682332,inf,inf,inf,inf,1,1,1,1,2,0,2,1,5,0,1,1,1,0
6979892000,6979892000,1036000,41.606704,-86.3556021,-0.6492362,-1.3624135,-2.007688,0.00034485216,0.00015009663,0.0,-0.0019906517,-0.0066636167,-0.28389224,-0.285573,-0.00075083744,-0.012200711,-0.0165996,-0.13151848,-0.07610863,-0.93292165,-1.0480571,0.006171089,229.39903,2.2196832,0.23141706,0.21516421,0.1209773,0.10207537,inf,inf,inf,inf,1,1,1,1,2,0,2,1,5,1,1,1,1,0
6980388000,6980388000,1036000,41.606704,-86.3556021,-0.6480091,-1.3655856,-2.118677,0.00034485216,0.00015009663,0.0,-0.0051810932,0.00071331434,-0.1786665,-0.17849351,-0.00075083744,-0.012200711,-0.0165996,-0.06584145,0.051391363,0.7210066,-1.0475768,0.006171089,229.39903,2.3306718,0.25830674,0.24582416,0.13375214,0.10770711,inf,inf,inf,inf,1,1,1,1,2,0,2,1,5,1,1,1,1,0
6980884000,6980884000,1036000,41.606704,-86.3556021,-0.6523479,-1.3654848,-2.0918977,0.00034485216,0.00015009663,0.0,-0.0060301237,0.0159581,0.07061016,0.07650265,-0.00075083744,-0.012200711,-0.0165996,0.040007055,0.09294261,-0.2993867,-1.0476595,0.006171089,229.39903,2.3038926,0.2825,0.27552423,0.14381386,0.11185745,inf,inf,inf,inf,1,1,1,1,2,0,2,1,5,1,1,1,1,0
6981388000,6981388000,1036000,41.606704,-86.3556021,-0.6533686,-1.3465062,-2.1048326,0.00034485216,0.00015009663,0.0,-0.006432476,0.14551483,-0.2064695,-0.19164374,-0.00075083744,-0.012200711,-0.0165996,0.0035748044,0.55630213,-0.6716047,-1.0500178,0.006171089,229.39903,2.3168278,0.30453783,0.30357265,0.15305479,0.11481249,inf,inf,inf,inf,1,1,1,1,2,0,2,1,5,1,1,1,0,0
6981884000,6981884000,1036000,41.606704,-86.3556021,-0.6521946,-1.1805959,-2.2734106,0.00034485216,0.00015009663,0.0,-0.0077637685,0.6723328,-0.49891856,-0.4827114,-0.00075083744,-0.012200711,-0.0165996,0.061492767,1.5799291,-0.48384538,-1.0491323,0.006171089,229.39903,2.4854054,0.32383868,0.3268215,0.16098972,0.11633061,inf,inf,inf,inf,1,1,1,1,2,0,2,1,5,1,1,1,0,0
6982388000,6982388000,1036000,41.606704,-86.3556021,-0.64871687,-0.6768987,-2.564437,0.00034485216,0.00015009663,0.0,-0.0041347705,1.4411302,-0.6523588,-0.64003587,-0.00075083744,-0.012200711,-0.0165996,-0.000876842,1.4359926,-0.2496364,-1.0524039,0.006171089,229.39903,2.776432,0.33933514,0.34672165,0.16611671,0.11673862,inf,inf,inf,inf,1,1,1,1,2,0,2,1,5,1,1,1,0,0
6982884000,6982884000,1036000,41.606704,-86.3556021,-0.6303951,0.17243533,-2.9051898,0.00034485216,0.00015009663,0.0,-0.005394496,2.018816,-0.7040626,-0.69753575,-0.00075083744,-0.012200711,-0.0165996,0.023047678,0.93019277,-0.1832387,-1.0635186,0.006171089,229.39903,3.1171846,0.33239666,0.3560401,0.1554089,0.11340687,inf,inf,inf,inf,1,1,1,1,2,0,2,1,5,1,1,1,0,0
6983388000,6983388000,1036000,41.606704,-86.3556021,-0.6083721,1.2765763,-3.2699554,0.00034485216,0.00015009663,0.0,-0.020826401,2.332009,-0.69163734,-0.6945809,-0.00075083744,-0.012200711,-0.0165996,-0.08561048,0.43612492,-0.064484835,-1.0738289,0.006171089,229.39903,3.4819503,0.3653108,0.37836957,0.16830657,0.11714736,inf,inf,inf,inf,1,1,1,1,2,0,2,1,5,1,1,1,0,0
6983884000,6983884000,1036000,41.606704,-86.3556021,-0.594384,2.4735525,-3.6301332,0.00034485216,0.00015009663,0.0,-0.032976266,2.4588487,-0.66987294,-0.6873615,-0.00075083744,-0.012200711,-0.0165996,-0.053358637,0.09928718,0.07129361,-1.0787331,0.006171089,229.39903,3.8421283,0.35074052,0.38207272,0.15099671,0.113453604,inf,inf,inf,inf,1,1,1,1,2,0,2,1,5,1,1,1,0,0
6984388000,6984388000,1036000,41.606704,-86.3556021,-0.60286224,3.7376854,-3.9909701,0.00034485216,0.00015009663,0.0,-0.04843734,2.5082715,-0.6497797,-0.68174505,-0.00075083744,-0.012200711,-0.0165996,-0.080380514,-0.01873561,0.037550863,-1.0868629,0.006171089,229.39903,4.2029653,0.35889286,0.39089057,0.14949031,0.1135625,inf,inf,inf,inf,1,1,1,1,2,0,2,1,5,1,1,1,0,0
6984892000,6984892000,1036000,41.606704,-86.3556021,-0.62283564,5.022591,-4.342619,0.00034485216,0.00015009663,0.0,-0.04284596,2.524712,-0.647667,-0.68685323,-0.00075083744,-0.012200711,-0.0165996,0.031613756,0.060382422,-0.030874334,-1.0940614,0.006171089,229.39903,4.554614,0.3640229,0.39992157,0.14721653,0.113907576,inf,inf,inf,inf,1,1,1,1,2,0,2,1,5,1,1,1,0,0
6985388000,6985388000,1036000,41.606704,-86.3556021,-0.64322805,6.292957,-4.6922717,0.00034485216,0.00015009663,0.0,-0.032627698,2.5207567,-0.633387,-0.68074846,-0.00075083744,-0.012200711,-0.0165996,0.005664571,-0.076725684,0.009096164,-1.105632,0.006171089,229.39903,4.904267,0.368568,0.4043093,0.14665638,0.113969065,inf,inf,inf,inf,1,1,1,1,2,0,2,1,5,1,1,1,0,0
6985884000,6985884000,1036000,41.606704,-86.3556021,-0.6648806,7.546447,-5.0411234,0.00034485216,0.00015009663,0.0,-0.017107371,2.489084,-0.62671036,-0.6805061,-0.00075083744,-0.012200711,-0.0165996,-0.019408224,-0.015318746,-0.016912881,-1.1126509,0.006171089,229.39903,5.2531185,0.37336788,0.41022864,0.1476385,0.11478019,inf,inf,inf,inf,1,1,1,1,2,0,2,1,5,1,1,1,0,0
6986388000,6986388000,1036000,41.606704,-86.3556021,-0.681581,8.809288,-5.3892803,0.00034485216,0.00015009663,0.0,-0.007522965,2.4834406,-0.6445684,-0.6979171,-0.00075083744,-0.012200711,-0.0165996,0.35584718,0.14905514,0.17972656,-1.122368,0.006171089,229.39903,5.6012754,0.3765059,0.4126076,0.1477429,0.11505328,inf,inf,inf,inf,1,1,1,1,2,0,2,1,5,1,1,1,0,0
6986884000,6986884000,1036000,41.606704,-86.3556021,-0.6910025,10.050004,-5.7431006,0.00034485216,0.00015009663,0.0,0.0071758092,2.47034,-0.6462339,-0.7056303,-0.00075083744,-0.012200711,-0.0165996,0.058526073,-0.18293582,0.05790957,-1.1326782,0.006171089,229.39903,5.955096,0.35912547,0.40983805,0.13891447,0.11227255,inf,inf,inf,inf,1,1,1,1,2,0,2,1,5,1,1,1,0,0
6987388000,6987388000,1036000,41.606704,-86.3556021,-0.69353074,11.303324,-6.1064134,0.00034485216,0.00015009663,0.0,0.013053602,2.469494,-0.6419691,-0.70622635,-0.00075083744,-0.012200711,-0.0165996,0.013607324,-0.038164463,0.028988281,-1.1415732,0.006171089,229.39903,6.3184085,0.38283154,0.42054167,0.14975381,0.11683214,inf,inf,inf,inf,1,1,1,1,2,0,2,1,5,1,1,1,0,0
6987892000,6987892000,1036000,41.606704,-86.3556021,-0.6976147,12.568326,-6.472606,0.00034485216,0.00015009663,0.0,0.008926665,2.472272,-0.6372157,-0.7085281,-0.00075083744,-0.012200711,-0.0165996,-0.025070844,0.026026899,-0.0006082168,-1.1532247,0.006171089,229.39903,6.6846013,0.3644668,0.4144249,0.14069566,0.11364331,inf,inf,inf,inf,1,1,1,1,2,0,2,1,5,1,1,1,0,0
6988388000,6988388000,1036000,41.606704,-86.3556021,-0.70177305,13.80414,-6.822587,0.00034485216,0.00015009663,0.0,0.010610113,2.4589732,-0.63433677,-0.70385885,-0.00075083744,-0.012200711,-0.0165996,0.039107148,-0.031601768,-0.0015786549,-1.1600063,0.006171089,229.39903,7.034582,0.3674966,0.41718036,0.14262223,0.11464676,inf,inf,inf,inf,1,1,1,1,2,0,2,1,5,1,1,1,0,0
6988892000,6988892000,1036000,41.606704,-86.3556021,-0.69880056,15.0535345,-7.1756597,0.00034485216,0.00015009663,0.0,0.01724101,2.4685776,-0.6461863,-0.7109255,-0.00075083744,-0.012200711,-0.0165996,-0.007992054,0.046758924,-0.116931334,-1.1712532,0.006171089,229.39903,7.387655,0.36963016,0.41710693,0.1433602,0.115092404,inf,inf,inf,inf,1,1,1,1,2,0,2,1,5,1,1,1,0,0
6989388000,6989388000,1036000,41.606704,-86.3556021,-0.6958059,16.287874,-7.529451,0.00034485216,0.00015009663,0.0,0.0153769385,2.4681795,-0.64834446,-0.71267027,-0.00075083744,-0.012200711,-0.0165996,-0.018535726,-0.040493675,0.1349346,-1.1781653,0.006171089,229.39903,7.741446,0.37199518,0.41638225,0.14475982,0.11554643,inf,inf,inf,inf,1,1,1,1,2,0,2,1,5,1,1,1,0,0
6989892000,6989892000,1036000,41.606704,-86.3556021,-0.692609,17.53825,-7.885879,0.00034485216,0.00015009663,0.0,0.013122309,2.4782083,-0.64698935,-0.70803654,-0.00075083744,-0.012200711,-0.0165996,0.06584492,-0.007597801,0.031926606,-1.1891127,0.006171089,229.39903,8.097874,0.374629,0.41913024,0.14601225,0.116432585,inf,inf,inf,inf,1,1,1,1,2,0,2,1,5,1,1,1,0,0
6990388000,6990388000,1036000,41.606704,-86.3556021,-0.69011146,18.77309,-8.234462,0.00034485216,0.00015009663,0.0,0.0077687963,2.480249,-0.64798534,-0.7043131,-0.00075083744,-0.012200711,-0.0165996,0.012472262,-0.061331954,-0.052191377,-1.1925164,0.006171089,229.39903,8.446457,0.37632135,0.4210424,0.14681469,0.117007166,inf,inf,inf,inf,1,1,1,1,2,0,2,1,5,1,1,1,0,0
6990884000,6990884000,1036000,41.606704,-86.3556021,-0.69014,20.01406,-8.582598,0.00034485216,0.00015009663,0.0,0.009854937,2.479863,-0.66042584,-0.71278745,-0.00075083744,-0.012200711,-0.0165996,0.07148378,0.007358887,0.0033322088,-1.2022866,0.006171089,229.39903,8.794593,0.35912094,0.41417894,0.13889353,0.113637015,inf,inf,inf,inf,1,1,1,1,2,0,2,1,5,1,1,1,0,0
6991388000,6991388000,1036000,41.606704,-86.3556021,-0.6853553,21.275492,-8.941217,0.00034485216,0.00015009663,0.0,0.0077241175,2.499861,-0.6748289,-0.72305566,-0.00075083744,-0.012200711,-0.0165996,-0.013825909,0.21435773,-0.022297787,-1.209682,0.006171089,229.39903,9.153213,0.38202143,0.41956046,0.1500877,0.11779618,inf,inf,inf,inf,1,1,1,1,2,0,2,1,5,1,1,1,0,0
6991884000,6991884000,1036000,41.606704,-86.3556021,-0.6827975,22.514618,-9.305761,0.00034485216,0.00015009663,0.0,0.0020823698,2.501138,-0.6635178,-0.71739006,-0.00075083744,-0.012200711,-0.0165996,-0.08721308,0.01631785,-0.11717348,-1.2190185,0.006171089,229.39903,9.517756,0.3631882,0.4156661,0.14083134,0.11452283,inf,inf,inf,inf,1,1,1,1,2,0,2,1,5,1,1,1,0,0
6992388000,6992388000,1036000,41.606704,-86.3556021,-0.68013585,23.771084,-9.660006,0.00034485216,0.00015009663,0.0,0.0017498734,2.4922903,-0.6606221,-0.708617,-0.00075083744,-0.012200711,-0.0165996,-0.04061799,0.047284365,-0.29275665,-1.2227893,0.006171089,229.39903,9.872001,0.38786682,0.42130977,0.1530535,0.118839346,inf,inf,inf,inf,1,1,1,1,2,0,2,1,5,1,1,1,0,0
6992892000,6992892000,1036000,41.606704,-86.3556021,-0.6816302,25.022411,-10.024913,0.00034485216,0.00015009663,0.0,0.0039543165,2.4960096,-0.665713,-0.7176722,-0.00075083744,-0.012200711,-0.0165996,0.0107867345,-0.036462504,0.15251145,-1.2309885,0.006171089,229.39903,10.236908,0.36803028,0.4177038,0.14304203,0.11543742,inf,inf,inf,inf,1,1,1,1,2,0,2,1,5,1,1,1,0,0
6993388000,6993388000,1036000,41.606704,-86.3556021,-0.68418205,26.255848,-10.38184,0.00034485216,0.00015009663,0.0,0.00060945674,2.5030887,-0.663531,-0.71600866,-0.00075083744,-0.012200711,-0.0165996,0.017649807,0.026551887,0.07618305,-1.236458,0.006171089,229.39903,10.593835,0.37059674,0.41669074,0.14453767,0.11565749,inf,inf,inf,inf,1,1,1,1,2,0,2,1,5,1,1,1,0,0
6993884000,6993884000,1036000,41.606704,-86.3556021,-0.6852845,27.494751,-10.72828,0.00034485216,0.00015009663,0.0,0.004854195,2.5162063,-0.6706672,-0.7147802,-0.00075083744,-0.012200711,-0.0165996,0.026440348,0.04723389,0.045438234,-1.2420056,0.006171089,229.39903,10.940275,0.3727232,0.41856733,0.14548275,0.11610408,inf,inf,inf,inf,1,1,1,1,2,0,2,1,5,1,1,1,0,0
6994388000,6994388000,1036000,41.606704,-86.3556021,-0.6846944,28.75452,-11.084146,0.00034485216,0.00015009663,0.0,0.0067943586,2.513464,-0.67319804,-0.71422404,-0.00075083744,-0.012200711,-0.0165996,-0.009966746,0.09761967,-0.050365984,-1.2507236,0.006171089,229.39903,11.296141,0.3752686,0.41804054,0.14654347,0.11629912,inf,inf,inf,inf,1,1,1,1,2,0,2,1,5,1,1,1,0,0
6994884000,6994884000,1036000,41.606704,-86.3556021,-0.68617904,29.98483,-11.445207,0.00034485216,0.00015009663,0.0,0.0051978705,2.4982,-0.65889645,-0.705692,-0.00075083744,-0.012200711,-0.0165996,-0.0008736563,-0.16577594,-0.01708797,-1.2582785,0.006171089,229.39903,11.657202,0.37810564,0.42003447,0.14802557,0.11685902,inf,inf,inf,inf,1,1,1,1,2,0,2,1,5,1,1,1,0,0
6995388000,6995388000,1036000,41.606704,-86.3556021,-0.6877051,31.204565,-11.790964,0.00034485216,0.00015009663,0.0,0.008544609,2.327048,-0.63152146,-0.67282236,-0.00075083744,-0.012200711,-0.0165996,0.04289132,-0.79241025,-0.09157142,-1.2659606,0.006171089,229.39903,12.002959,0.3799943,0.41943386,0.1483123,0.11691874,inf,inf,inf,inf,1,1,1,1,2,0,2,1,5,1,1,1,0,0
6995892000,6995892000,1036000,41.606704,-86.3556021,-0.6880497,32.240143,-12.099775,0.00034485216,0.00015009663,0.0,0.007834146,1.7356061,-0.48071748,-0.5192983,-0.00075083744,-0.012200711,-0.0165996,-0.0016260982,-1.4883409,0.5368766,-1.2714791,0.006171089,229.39903,12.31177,0.3624343,0.4133559,0.13984284,0.113537006,inf,inf,inf,inf,1,1,1,1,2,0,2,1,5,1,1,1,0,0
6996388000,6996388000,1036000,41.606704,-86.3556021,-0.6960299,32.909172,-12.295349,0.00034485216,0.00015009663,0.0,0.0046189534,0.97763896,-0.2702534,-0.30387196,-0.00075083744,-0.012200711,-0.0165996,0.06377572,-1.3549727,0.31822726,-1.2715487,0.006171089,229.39903,12.507344,0.38634017,0.4213018,0.15212479,0.117966525,inf,inf,inf,inf,1,1,1,1,2,0,2,1,5,1,1,1,0,0
6996892000,6996892000,1036000,41.606704,-86.3556021,-0.7192671,33.245605,-12.419534,0.00034485216,0.00015009663,0.0,0.0037210681,0.4188059,-0.1466551,-0.1833729,-0.00075083744,-0.012200711,-0.0165996,-0.0065177465,-0.83392507,0.10096088,-1.2774303,0.006171089,229.39903,12.631529,0.3668202,0.4149336,0.1426648,0.11444124,inf,inf,inf,inf,1,1,1,1,2,0,2,1,5,1,1,1,0,0
6997388000,6997388000,1036000,41.606704,-86.3556021,-0.7529909,33.352654,-12.480005,0.00034485216,0.00015009663,0.0,0.023882354,0.116860196,-0.07909095,-0.10494778,-0.00075083744,-0.012200711,-0.0165996,-0.15946859,-0.38866812,1.425864,-1.2792377,0.006171089,229.39903,12.692,0.369522,0.41689575,0.1439928,0.11529878,inf,inf,inf,inf,1,1,1,1,2,0,2,1,5,1,1,1,0,0
6997892000,6997892000,1036000,41.606704,-86.3556021,-0.7626127,33.356087,-12.5150175,0.00034485216,0.00015009663,0.0,0.051268212,0.007269798,-0.055759724,-0.07357599,-0.00075083744,-0.012200711,-0.0165996,-0.08042651,-0.09841001,-1.1845074,-1.282964,0.006171089,229.39903,12.727013,0.37133607,0.416297,0.1437247,0.11575759,inf,inf,inf,inf,1,1,1,1,2,0,2,1,5,1,1,1,0,0
6998388000,6998388000,1036000,41.606704,-86.3556021,-0.76781756,33.326828,-12.519527,0.00034485216,0.00015009663,0.0,0.021889748,-0.030685069,0.039586075,0.029247887,-0.00075083744,-0.012200711,-0.0165996,-0.13826682,-0.08654475,0.05763483,-1.2839088,0.006171089,229.39903,12.731523,0.37346813,0.41826335,0.1440971,0.11666104,inf,inf,inf,inf,1,1,1,1,2,0,2,1,5,1,1,1,0,0
6998884000,6998884000,1036000,41.606704,-86.3556021,-0.78293794,33.288055,-12.50104,0.00034485216,0.00015009663,0.0,-0.0028735485,-0.026042754,0.021354232,0.015232774,-0.00075083744,-0.012200711,-0.0165996,0.06361709,0.1436237,-0.07883745,-1.283879,0.006171089,229.39903,12.713036,0.3765287,0.41738945,0.14588003,0.11741418,inf,inf,inf,inf,1,1,1,1,2,0,2,1,5,1,1,1,0,0
6999388000,6999388000,1036000,41.606704,-86.3556021,-0.7899453,33.259434,-12.495506,0.00034485216,0.00015009663,0.0,0.0062768403,0.005520483,0.002756214,-0.0028683094,-0.00075083744,-0.012200711,-0.0165996,0.098378465,0.0976921,0.040517125,-1.2832502,0.006171089,229.39903,12.707501,0.37858522,0.41984582,0.14667974,0.11829205,inf,inf,inf,inf,1,1,1,1,2,0,2,1,5,1,1,1,0,0
6999892000,6999892000,1036000,41.606704,-86.3556021,-0.79227924,33.251938,-12.484884,0.00034485216,0.00015009663,0.0,0.017602429,0.04063399,-0.011468554,-0.0067883576,-0.00075083744,-0.012200711,-0.0165996,0.012248647,0.049576495,0.0055375807,-1.2836064,0.006171089,229.39903,12.696879,0.36143216,0.41360092,0.1389483,0.11509902,inf,inf,inf,inf,1,1,1,1,2,0,2,1,5,1,1,1,0,0
7000388000,7000388000,1036000,41.606704,-86.3556021,-0.7868138,33.264313,-12.485013,0.00034485216,0.00015009663,0.0,0.02301468,0.05929975,-0.019539125,-0.012028546,-0.00075083744,-0.012200711,-0.0165996,-0.02929516,0.07812143,-0.05153852,-1.2834897,0.006171089,229.39903,12.697008,0.3837736,0.42118028,0.14971572,0.11965343,inf,inf,inf,inf,1,1,1,1,2,0,2,1,5,1,1,1,0,0
7000892000,7000892000,1036000,41.606704,-86.3556021,-0.7711499,33.27927,-12.480715,0.00034485216,0.00015009663,0.0,0.017803105,0.05933241,-0.024394853,-0.009790518,-0.00075083744,-0.012200711,-0.0165996,-0.10410101,-0.008739389,-0.114022814,-1.2840604,0.006171089,229.39903,12.69271,0.36509928,0.41472417,0.14081796,0.11611632,inf,inf,inf,inf,1,1,1,1,2,0,2,1,5,1,1,1,0,0
7001388000,7001388000,1036000,41.606704,-86.3556021,-0.752936,33.292953,-12.477602,0.00034485216,0.00015009663,0.0,0.007144322,0.054680403,-0.03189136,-0.010746778,-0.00075083744,-0.012200711,-0.0165996,-0.16848925,-0.049838062,-0.091214724,-1.2846091,0.006171089,229.39903,12.689597,0.36799145,0.41678444,0.14275268,0.11699906,inf,inf,inf,inf,1,1,1,1,2,0,2,1,5,1,1,1,0,0
7001884000,7001884000,1036000,41.606704,-86.3556021,-0.73480463,33.3153,-12.481837,0.00034485216,0.00015009663,0.0,-0.0026570861,0.05321609,-0.029945197,-0.008893169,-0.00075083744,-0.012200711,-0.0165996,-0.16723742,-0.021002296,0.1840656,-1.285522,0.006171089,229.39903,12.693832,0.36930746,0.4157544,0.1429916,0.11716041,inf,inf,inf,inf,1,1,1,1,2,0,2,1,5,1,1,1,0,0
7002388000,7002388000,1036000,41.606704,-86.3556021,-0.7184696,33.343304,-12.478207,0.00034485216,0.00015009663,0.0,-0.021120518,0.034678593,-0.036384404,-0.009229936,-0.00075083744,-0.012200711,-0.0165996,0.0420968,-0.042820662,0.012203988,-1.2855581,0.006171089,229.39903,12.690202,0.37225527,0.41842663,0.14444746,0.118027896,inf,inf,inf,inf,1,1,1,1,2,0,2,1,5,1,1,1,0,0
7002884000,7002884000,1036000,41.606704,-86.3556021,-0.7152398,33.36271,-12.477949,0.00034485216,0.00015009663,0.0,-0.03637286,0.015362054,-0.034614835,-0.0048993276,-0.00075083744,-0.012200711,-0.0165996,-0.045237433,-0.047869787,-0.016234878,-1.2850844,0.006171089,229.39903,12.689944,0.37421227,0.41748127,0.14513503,0.118273556,inf,inf,inf,inf,1,1,1,1,2,0,2,1,5,1,1,1,0,0
7003388000,7003388000,1036000,41.606704,-86.3556021,-0.7111963,33.3698,-12.469902,0.00034485216,0.00015009663,0.0,-0.035845324,-0.0034841264,-0.04092224,-0.0030502419,-0.00075083744,-0.012200711,-0.0165996,-0.02662338,-0.01475427,0.017637322,-1.2853361,0.006171089,229.39903,12.681897,0.37660173,0.42002738,0.1459834,0.1189514,inf,inf,inf,inf,1,1,1,1,2,0,2,1,5,1,1,1,0,0
7003892000,7003892000,1036000,41.606704,-86.3556021,-0.7074593,33.372982,-12.474569,0.00034485216,0.00015009663,0.0,-0.040777132,-0.008365613,-0.044663303,-0.009067748,-0.00075083744,-0.012200711,-0.0165996,-0.015533781,-0.05010887,-0.017610442,-1.2852864,0.006171089,229.39903,12.686564,0.35996413,0.41380104,0.13819134,0.11553823,inf,inf,inf,inf,1,1,1,1,2,0,2,1,5,1,1,1,0,0
7004388000,7004388000,1036000,41.606704,-86.3556021,-0.71046615,33.37874,-12.479211,0.00034485216,0.00015009663,0.0,-0.044638455,-0.0081067365,-0.043826714,-0.009913138,-0.00075083744,-0.012200711,-0.0165996,-0.02381907,0.039237484,0.008648198,-1.2853034,0.006171089,229.39903,12.691206,0.3822529,0.42153496,0.14859256,0.12001569,inf,inf,inf,inf,1,1,1,1,2,0,2,1,5,1,1,1,0,0
7004892000,7004892000,1036000,41.606704,-86.3556021,-0.7073376,33.38474,-12.482562,0.00034485216,0.00015009663,0.0,-0.03683457,-0.011585073,-0.03937186,-0.0069054994,-0.00075083744,-0.012200711,-0.0165996,-0.0747893,0.075581126,0.015835213,-1.2848743,0.006171089,229.39903,12.694557,0.3640129,0.4150816,0.13969472,0.116358444,inf,inf,inf,inf,1,1,1,1,2,0,2,1,5,1,1,1,0,0
7005388000,7005388000,1036000,41.606704,-86.3556021,-0.7076128,33.38396,-12.484894,0.00034485216,0.00015009663,0.0,-0.041617326,-0.0151414955,-0.03649029,-0.0051458953,-0.00075083744,-0.012200711,-0.0165996,-0.00093305914,0.0061311848,-0.214628,-1.2843328,0.006171089,229.39903,12.696889,0.38790885,0.4201215,0.15102759,0.12069143,inf,inf,inf,inf,1,1,1,1,2,0,2,1,5,1,1,1,0,0
7005892000,7005892000,1036000,41.606704,-86.3556021,-0.7125283,33.382626,-12.48394,0.00034485216,0.00015009663,0.0,-0.034957685,-0.015990425,-0.029944438,0.003472096,-0.00075083744,-0.012200711,-0.0165996,-0.037434418,-0.021905111,-0.1773667,-1.2841907,0.006171089,229.39903,12.695935,0.36807314,0.4166575,0.14121142,0.11722159,inf,inf,inf,inf,1,1,1,1,2,0,2,1,5,1,1,1,0,0
7006388000,7006388000,1036000,41.606704,-86.3556021,-0.7203791,33.375607,-12.476427,0.00034485216,0.00015009663,0.0,-0.03381372,-0.019271793,-0.036051273,0.0043694675,-0.00075083744,-0.012200711,-0.0165996,-0.25835514,-0.034323923,1.278295,-1.2842982,0.006171089,229.39903,12.688422,0.37059912,0.41578603,0.14265114,0.117560305,inf,inf,inf,inf,1,1,1,1,2,0,2,1,5,1,1,1,0,0
7006892000,7006892000,1036000,41.606704,-86.3556021,-0.7344901,33.374386,-12.479522,0.00034485216,0.00015009663,0.0,-0.028275333,-0.012963971,-0.04589712,-0.00768065,-0.00075083744,-0.012200711,-0.0165996,0.022278225,0.025958639,0.35277373,-1.2839956,0.006171089,229.39903,12.691517,0.37339407,0.41845742,0.14389609,0.11832959,inf,inf,inf,inf,1,1,1,1,2,0,2,1,5,1,1,1,0,0
7007388000,7007388000,1036000,41.606704,-86.3556021,-0.73873717,33.373928,-12.475614,0.00034485216,0.00015009663,0.0,-0.012366828,-0.015506995,-0.042396262,-0.00024524916,-0.00075083744,-0.012200711,-0.0165996,0.058215942,-0.0043619946,0.028418312,-1.2838529,0.006171089,229.39903,12.687609,0.37517813,0.4174437,0.14454941,0.11846512,inf,inf,inf,inf,1,1,1,1,2,0,2,1,5,1,1,1,0,0
7007884000,7007884000,1036000,41.606704,-86.3556021,-0.7390521,33.371315,-12.464065,0.00034485216,0.00015009663,0.0,-0.006894848,-0.01534415,-0.05786891,-0.005234076,-0.00075083744,-0.012200711,-0.0165996,-0.010222329,0.024777122,-0.0681589,-1.2842855,0.006171089,229.39903,12.67606,0.3779584,0.41946238,0.14612192,0.11914095,inf,inf,inf,inf,1,1,1,1,2,0,2,1,5,1,1,1,0,0
7008388000,7008388000,1036000,41.606704,-86.3556021,-0.7506994,33.365807,-12.4598875,0.00034485216,0.00015009663,0.0,-0.0045886594,-0.009954926,-0.0601604,-0.0029616905,-0.00075083744,-0.012200711,-0.0165996,0.054211896,-0.021430314,-0.06281218,-1.2838914,0.006171089,229.39903,12.671883,0.37980857,0.41890132,0.14651072,0.11929592,inf,inf,inf,inf,1,1,1,1,2,0,2,1,5,1,1,1,0,0
7008892000,7008892000,1036000,41.606704,-86.3556021,-0.76098144,33.36973,-12.4467325,0.00034485216,0.00015009663,0.0,0.0032883878,-0.0046347002,-0.07231393,-0.0032332884,-0.00075083744,-0.012200711,-0.0165996,0.08663861,0.021486258,-0.028993996,-1.2835792,0.006171089,229.39903,12.658728,0.3623209,0.41553304,0.13838843,0.116083674,inf,inf,inf,inf,1,1,1,1,2,0,2,1,5,1,1,1,0,0
7009388000,7009388000,1036000,41.606704,-86.3556021,-0.76598686,33.373516,-12.452858,0.00034485216,0.00015009663,0.0,0.012890246,-0.009545028,-0.075016156,-0.0114394855,-0.00075083744,-0.012200711,-0.0165996,0.09867512,-0.017284002,0.07093412,-1.2835628,0.006171089,229.39903,12.664853,0.38608563,0.42352632,0.14982556,0.12078755,inf,inf,inf,inf,1,1,1,1,2,0,2,1,5,1,1,1,0,0
7009892000,7009892000,1036000,41.606704,-86.3556021,-0.76965296,33.384922,-12.460347,0.00034485216,0.00015009663,0.0,0.019357845,-0.010913353,-0.06289695,-0.0041850717,-0.00075083744,-0.012200711,-0.0165996,-0.0063213566,-0.10322109,-0.039270207,-1.2835646,0.006171089,229.39903,12.672342,0.36680704,0.41675827,0.14035001,0.116943665,inf,inf,inf,inf,1,1,1,1,2,0,2,1,5,1,1,1,0,0
7010388000,7010388000,1036000,41.606704,-86.3556021,-0.77081823,33.392498,-12.462855,0.00034485216,0.00015009663,0.0,0.022427935,-0.020438032,-0.062205847,-0.005989235,-0.00075083744,-0.012200711,-0.0165996,-0.13521333,-0.01081617,-0.18604757,-1.2834977,0.006171089,229.39903,12.67485,0.3694115,0.41574046,0.14182167,0.117281675,inf,inf,inf,inf,1,1,1,1,2,0,2,1,5,1,1,1,0,0
7010884000,7010884000,1036000,41.606704,-86.3556021,-0.77277476,33.3903,-12.475877,0.00034485216,0.00015009663,0.0,0.018532075,-0.026689492,-0.04685674,-0.0014749216,-0.00075083744,-0.012200711,-0.0165996,-0.00770344,0.032131575,-0.17225933,-1.283288,0.006171089,229.39903,12.687872,0.37049922,0.41757277,0.14182815,0.11764161,inf,inf,inf,inf,1,1,1,1,2,0,2,1,5,1,1,1,0,0
7011388000,7011388000,1036000,41.606704,-86.3556021,-0.7832953,33.38669,-12.473327,0.00034485216,0.00015009663,0.0,0.022486018,-0.02465321,-0.045464046,0.0029408177,-0.00075083744,-0.012200711,-0.0165996,-0.069708414,-0.00086202536,0.13338861,-1.283665,0.006171089,229.39903,12.685322,0.37330773,0.41719282,0.14320888,0.11806302,inf,inf,inf,inf,1,1,1,1,2,0,2,1,5,1,1,1,0,0
7011892000,7011892000,1036000,41.606704,-86.3556021,-0.7943918,33.382034,-12.467242,0.00034485216,0.00015009663,0.0,0.031420555,-0.02345021,-0.053660452,-0.00096125784,-0.00075083744,-0.012200711,-0.0165996,0.033996593,0.008140572,-0.041887224,-1.2836633,0.006171089,229.39903,12.679237,0.37708902,0.4200027,0.14540903,0.119051196,inf,inf,inf,inf,1,1,1,1,2,0,2,1,5,1,1,1,0,0
7012388000,7012388000,1036000,41.606704,-86.3556021,-0.7970888,33.376118,-12.475882,0.00034485216,0.00015009663,0.0,0.03811152,-0.023238253,-0.0500087,-0.0042964835,-0.00075083744,-0.012200711,-0.0165996,-0.023698654,-0.022763517,0.062658384,-1.2837952,0.006171089,229.39903,12.687877,0.37835282,0.4188823,0.14558834,0.11907749,inf,inf,inf,inf,1,1,1,1,2,0,2,1,5,1,1,1,0,0
7012892000,7012892000,1036000,41.606704,-86.3556021,-0.8061626,33.37475,-12.477917,0.00034485216,0.00015009663,0.0,0.043087266,-0.016367026,-0.04733173,-0.0031225348,-0.00075083744,-0.012200711,-0.0165996,0.11577257,-0.08037257,0.03209238,-1.2841054,0.006171089,229.39903,12.689912,0.36116928,0.41551793,0.13760157,0.115895875,inf,inf,inf,inf,1,1,1,1,2,0,2,1,5,1,1,1,0,0
7013388000,7013388000,1036000,41.606704,-86.3556021,-0.7986166,33.375145,-12.478753,0.00034485216,0.00015009663,0.0,0.03166854,-0.005958962,9.4493116e-05,0.03757629,-0.00075083744,-0.012200711,-0.0165996,0.033648193,0.048746567,-0.07629121,-1.2841697,0.006171089,229.39903,12.690748,0.3834032,0.4202313,0.14766951,0.11996508,inf,inf,inf,inf,1,1,1,1,2,0,2,1,5,1,1,1,0,0
7013884000,7013884000,1036000,41.606704,-86.3556021,-0.8093733,33.38369,-12.455346,0.00034485216,0.00015009663,0.0,0.02180006,0.00651681,-0.020684747,0.022824083,-0.00075083744,-0.012200711,-0.0165996,0.13673289,-0.088963665,-0.17962237,-1.2846167,0.006171089,229.39903,12.667341,0.36424994,0.41606873,0.13871995,0.11642468,inf,inf,inf,inf,1,1,1,1,2,0,2,1,5,1,1,1,0,0
7014388000,7014388000,1036000,41.606704,-86.3556021,-0.7824174,33.386444,-12.44697,0.00034485216,0.00015009663,0.0,0.23957549,0.004217626,-0.06015887,-0.012507976,-0.00075083744,-0.012200711,-0.0165996,0.87439936,0.013268965,-0.12864085,-1.2858508,0.006171089,229.39903,12.658965,0.36779585,0.4157065,0.14103796,0.117019154,inf,inf,inf,inf,1,1,1,1,2,0,2,1,5,1,1,1,0,0
7014892000,7014892000,1036000,41.606704,-86.3556021,-0.5517892,33.382904,-12.4632,0.00034485216,0.00015009663,0.0,0.8695271,0.00053408125,-0.11861746,-0.06778786,-0.00075083744,-0.012200711,-0.0165996,1.6398267,0.03867684,-0.17847033,-1.2896144,0.006171089,229.39903,12.675195,0.36979908,0.41819245,0.1422315,0.117515795,inf,inf,inf,inf,1,1,1,1,2,0,2,1,5,1,1,1,0,0
7015388000,7015388000,1036000,41.606704,-86.3556021,0.020908115,33.368774,-12.498642,0.00034485216,0.00015009663,0.0,1.621664,-0.0017966944,-0.1552781,-0.09722016,-0.00075083744,-0.012200711,-0.0165996,1.3950427,-0.011260599,0.012254279,-1.2916358,0.006171089,229.39903,12.710637,0.37204996,0.41715872,0.14458789,0.117502995,inf,inf,inf,inf,1,1,1,1,2,0,2,1,5,1,1,1,0,0
7015892000,7015892000,1036000,41.606704,-86.3556021,0.943717,33.35138,-12.543336,0.00034485216,0.00015009663,0.0,2.1496096,0.015442638,-0.12851404,-0.072885,-0.00075083744,-0.012200711,-0.0165996,0.8406751,0.09707372,0.010136452,-1.2896646,0.006171089,229.39903,12.755331,0.37470385,0.41670313,0.14623101,0.117593385,inf,inf,inf,inf,1,1,1,1,2,0,2,1,5,1,1,1,0,0
7016388000,7016388000,1036000,41.606704,-86.3556021,2.0616431,33.332863,-12.569812,0.00034485216,0.00015009663,0.0,2.4195216,0.028726157,-0.077948526,-0.026203474,-0.00075083744,-0.012200711,-0.0165996,0.37925223,0.0384415,0.27488723,-1.2932165,0.006171089,229.39903,12.781807,0.3763865,0.41861522,0.1463695,0.1178859,inf,inf,inf,inf,1,1,1,1,2,0,2,1,5,1,1,1,0,0
7016892000,7016892000,1036000,41.606704,-86.3556021,3.290255,33.312405,-12.577475,0.00034485216,0.00015009663,0.0,2.519783,0.044171713,-0.040596053,0.0058067515,-0.00075083744,-0.012200711,-0.0165996,0.15114106,0.02351217,0.05626951,-1.2975172,0.006171089,229.39903,12.78947,0.35981333,0.41536286,0.13789463,0.11479779,inf,inf,inf,inf,1,1,1,1,2,0,2,1,5,1,1,1,0,0
7017388000,7017388000,1036000,41.606704,-86.3556021,4.5427566,33.31019,-12.581309,0.00034485216,0.00015009663,0.0,2.554246,0.068966985,-0.0126272105,0.02210675,-0.00075083744,-0.012200711,-0.0165996,0.09358437,0.078340486,0.03407144,-1.3078719,0.006171089,229.39903,12.793304,0.38200817,0.41993877,0.14772636,0.11880853,inf,inf,inf,inf,1,1,1,1,2,0,2,1,5,1,1,1,0,0
7017892000,7017892000,1036000,41.606704,-86.3556021,5.820077,33.317158,-12.578927,0.00034485216,0.00015009663,0.0,2.5710022,0.06946606,-0.0016496187,0.023669247,-0.00075083744,-0.012200711,-0.0165996,-0.047697697,-0.022110516,-0.023203963,-1.3210899,0.006171089,229.39903,12.790922,0.3638597,0.4164146,0.13884751,0.11557783,inf,inf,inf,inf,1,1,1,1,2,0,2,1,5,1,1,1,0,0
7018388000,7018388000,1036000,41.606704,-86.3556021,7.0905995,33.33445,-12.577447,0.00034485216,0.00015009663,0.0,2.5716903,0.07568334,0.005485585,0.021177553,-0.00075083744,-0.012200711,-0.0165996,0.042239398,0.038786683,-0.010369408,-1.3281246,0.006171089,229.39903,12.789442,0.3876493,0.42131642,0.15015627,0.11989826,inf,inf,inf,inf,1,1,1,1,2,0,2,1,5,1,1,1,0,0
7018884000,7018884000,1036000,41.606704,-86.3556021,8.342433,33.352234,-12.576636,0.00034485216,0.00015009663,0.0,2.5524826,0.063614644,0.012940359,0.019578548,-0.00075083744,-0.012200711,-0.0165996,-0.04289084,-0.003640659,-0.040545188,-1.3482293,0.006171089,229.39903,12.788631,0.36723706,0.41424644,0.14031114,0.11597773,inf,inf,inf,inf,1,1,1,1,2,0,2,1,5,1,1,1,0,0
7019388000,7019388000,1036000,41.606704,-86.3556021,9.603291,33.36916,-12.572246,0.00034485216,0.00015009663,0.0,2.5526023,0.047965296,0.0041169226,0.009648569,-0.00075083744,-0.012200711,-0.0165996,-0.05189381,0.056448214,-0.05542493,-1.3600352,0.006171089,229.39903,12.784241,0.37039936,0.41680488,0.14235182,0.116843216,inf,inf,inf,inf,1,1,1,1,2,0,2,1,5,1,1,1,0,0
7019892000,7019892000,1036000,41.606704,-86.3556021,10.86832,33.38331,-12.578929,0.00034485216,0.00015009663,0.0,2.5499635,0.042364877,0.0060954858,0.0039613186,-0.00075083744,-0.012200711,-0.0165996,-0.020248253,0.051509287,-0.02754579,-1.3685837,0.006171089,229.39903,12.790924,0.37316632,0.41632468,0.14389338,0.11722684,inf,inf,inf,inf,1,1,1,1,2,0,2,1,5,1,1,1,0,0
7020388000,7020388000,1036000,41.606704,-86.3556021,12.072775,33.40892,-12.578088,0.00034485216,0.00015009663,0.0,2.370969,0.03712766,0.049822386,0.040530864,-0.00075083744,-0.012200711,-0.0165996,-0.7388509,-0.09665092,0.14374678,-1.3916504,0.006171089,229.39903,12.790083,0.37494138,0.4181497,0.14488149,0.117693886,inf,inf,inf,inf,1,1,1,1,2,0,2,1,5,1,1,1,0,0
7020892000,7020892000,1036000,41.606704,-86.3556021,13.1129055,33.434547,-12.559531,0.00034485216,0.00015009663,0.0,1.7883312,0.023165764,0.07880237,0.060313772,-0.00075083744,-0.012200711,-0.0165996,-1.5306008,-0.108521335,0.25407404,-1.4023916,0.006171089,229.39903,12.771526,0.37851205,0.42068014,0.14812824,0.11853527,inf,inf,inf,inf,1,1,1,1,2,0,2,1,5,1,1,1,0,0
7021388000,7021388000,1036000,41.606704,-86.3556021,13.800262,33.457344,-12.542954,0.00034485216,0.00015009663,0.0,1.0303295,0.018564394,0.05859839,0.032563914,-0.00075083744,-0.012200711,-0.0165996,-1.4669962,-0.09010765,-0.123817526,-1.4077766,0.006171089,229.39903,12.75495,0.37966278,0.42231393,0.1503814,0.11870953,inf,inf,inf,inf,1,1,1,1,2,0,2,1,5,1,1,1,0,0
7021892000,7021892000,1036000,41.606704,-86.3556021,14.143796,33.494053,-12.546016,0.00034485216,0.00015009663,0.0,0.45407423,0.0055817007,0.02180919,-0.010582175,-0.00075083744,-0.012200711,-0.0165996,-0.8031447,-0.056956787,-0.0057444605,-1.4309438,0.006171089,229.39903,12.758011,0.36221066,0.41573855,0.14285386,0.11501874,inf,inf,inf,inf,1,1,1,1,2,0,2,1,5,1,1,1,0,0
7022388000,7022388000,1036000,41.606704,-86.3556021,14.261149,33.51422,-12.551955,0.00034485216,0.00015009663,0.0,0.13978271,-0.027714854,0.014386744,-0.01513485,-0.00075083744,-0.012200711,-0.0165996,-0.3106672,-0.16551727,-0.06938918,-1.4455506,0.006171089,229.39903,12.76395,0.38466975,0.42321226,0.15335974,0.11920941,inf,inf,inf,inf,1,1,1,1,2,0,2,1,5,1,1,1,0,0
7022884000,7022884000,1036000,41.606704,-86.3556021,14.249084,33.52825,-12.550331,0.00034485216,0.00015009663,0.0,0.019329097,-0.049285714,0.006123023,-0.013214631,-0.00075083744,-0.012200711,-0.0165996,-0.051062502,-0.033940405,-0.08695206,-1.457715,0.006171089,229.39903,12.762326,0.36504906,0.41588157,0.14214657,0.11536964,inf,inf,inf,inf,1,1,1,1,2,0,2,1,5,1,1,1,0,0
7023388000,7023388000,1036000,41.606704,-86.3556021,14.202778,33.535168,-12.53115,0.00034485216,0.00015009663,0.0,-0.04205398,-0.021069149,0.045611903,0.04161154,-0.00075083744,-0.012200711,-0.0165996,-0.18461779,0.104227446,-0.07704465,-1.4631925,0.006171089,229.39903,12.743145,0.36852524,0.4182304,0.14299369,0.116341196,inf,inf,inf,inf,1,1,1,1,2,0,2,1,5,1,1,1,0,0
7023892000,7023892000,1036000,41.606704,-86.3556021,14.141369,33.552814,-12.505985,0.00034485216,0.00015009663,0.0,-0.06776421,-0.009846886,0.058577847,0.05912206,-0.00075083744,-0.012200711,-0.0165996,0.050014365,-0.16304283,0.07907481,-1.4617343,0.006171089,229.39903,12.71798,0.37036717,0.4174214,0.14270753,0.11664889,inf,inf,inf,inf,1,1,1,1,2,0,2,1,5,1,1,1,0,0
7024388000,7024388000,1036000,41.606704,-86.3556021,14.053477,33.53654,-12.423805,0.00034485216,0.00015009663,0.0,-0.18751577,-0.21112591,0.2820699,0.28271207,-0.00075083744,-0.012200711,-0.0165996,-0.44226527,-0.88712955,0.5959821,-1.4667143,0.006171089,229.39903,12.6358,0.37255284,0.41919842,0.14288507,0.11735868,inf,inf,inf,inf,1,1,1,1,2,0,2,1,5,1,1,1,0,0
7024884000,7024884000,1036000,41.606704,-86.3556021,13.871559,33.32032,-12.242428,0.00034485216,0.00015009663,0.0,-0.46334827,-0.80604595,0.39548042,0.40089634,-0.00075083744,-0.012200711,-0.0165996,-0.6034731,-1.5332916,0.12832594,-1.4659528,0.006171089,229.39903,12.454423,0.3743015,0.41798156,0.1437209,0.11746582,inf,inf,inf,inf,1,1,1,1,2,0,2,1,5,1,1,1,0,0
7025388000,7025388000,1036000,41.606704,-86.3556021,13.541311,32.755283,-12.007543,0.00034485216,0.00015009663,0.0,-0.7019339,-1.5218366,0.46000102,0.48143134,-0.00075083744,-0.012200711,-0.0165996,-0.3138879,-1.3021622,0.14973424,-1.4732778,0.006171089,229.39903,12.219538,0.3765807,0.41740498,0.14565824,0.117541164,inf,inf,inf,inf,1,1,1,1,2,0,2,1,5,1,1,1,0,0
7025884000,7025884000,1036000,41.606704,-86.3556021,13.123054,31.88738,-11.7129,0.00034485216,0.00015009663,0.0,-0.8304561,-2.0286345,0.54721785,0.59389293,-0.00075083744,-0.012200711,-0.0165996,-0.14387242,-0.7803097,0.2024918,-1.4822304,0.006171089,229.39903,11.924895,0.35924792,0.41357678,0.13792728,0.114173435,inf,inf,inf,inf,1,1,1,1,2,0,2,1,5,1,1,1,0,0
7026388000,7026388000,1036000,41.606704,-86.3556021,12.662232,30.794855,-11.380745,0.00034485216,0.00015009663,0.0,-0.8932389,-2.3284636,0.6232774,0.6770284,-0.00075083744,-0.012200711,-0.0165996,-0.14239256,-0.47294456,0.105830766,-1.4842044,0.006171089,229.39903,11.59274,0.38194117,0.42158398,0.14853898,0.118562624,inf,inf,inf,inf,1,1,1,1,2,0,2,1,5,1,1,1,0,0
7026892000,7026892000,1036000,41.606704,-86.3556021,12.164482,29.586283,-11.007267,0.00034485216,0.00015009663,0.0,-0.9314981,-2.4726672,0.6781418,0.74237597,-0.00075083744,-0.012200711,-0.0165996,0.022697376,-0.14313486,-0.006725143,-1.4891518,0.006171089,229.39903,11.219262,0.36379707,0.4149457,0.13951376,0.11494911,inf,inf,inf,inf,1,1,1,1,2,0,2,1,5,1,1,1,0,0
7027388000,7027388000,1036000,41.606704,-86.3556021,11.668967,28.343143,-10.616233,0.00034485216,0.00015009663,0.0,-0.9401743,-2.5185776,0.68993264,0.764602,-0.00075083744,-0.012200711,-0.0165996,0.021655217,-0.16276665,-0.09451626,-1.477265,0.006171089,229.39903,10.828228,0.3874671,0.4225791,0.15088725,0.119564354,inf,inf,inf,inf,1,1,1,1,2,0,2,1,5,1,1,1,0,0
7027884000,7027884000,1036000,41.606704,-86.3556021,11.174868,27.072014,-10.221914,0.00034485216,0.00015009663,0.0,-0.9546634,-2.5431395,0.7033287,0.78448606,-0.00075083744,-0.012200711,-0.0165996,-0.10291555,-0.05813825,-0.042731002,-1.4781227,0.006171089,229.39903,10.433909,0.36710203,0.41531044,0.14100164,0.115686014,inf,inf,inf,inf,1,1,1,1,2,0,2,1,5,1,1,1,0,0
7028388000,7028388000,1036000,41.606704,-86.3556021,10.672014,25.782364,-9.816849,0.00034485216,0.00015009663,0.0,-0.97506416,-2.5454185,0.6931925,0.7811199,-0.00075083744,-0.012200711,-0.0165996,0.011787417,0.013287275,-0.05742448,-1.4684516,0.006171089,229.39903,10.028844,0.37028444,0.41767773,0.14320368,0.116596624,inf,inf,inf,inf,1,1,1,1,2,0,2,1,5,1,1,1,0,0
7028884000,7028884000,1036000,41.606704,-86.3556021,10.174545,24.511608,-9.423467,0.00034485216,0.00015009663,0.0,-0.98803604,-2.5357645,0.6838484,0.7751448,-0.00075083744,-0.012200711,-0.0165996,-0.05132014,0.00618959,-0.035097882,-1.4489212,0.006171089,229.39903,9.635462,0.3723708,0.41644034,0.14456795,0.11686894,inf,inf,inf,inf,1,1,1,1,2,0,2,1,5,1,1,1,0,0
7029388000,7029388000,1036000,41.606704,-86.3556021,9.670629,23.228577,-9.017193,0.00034485216,0.00015009663,0.0,-1.0039363,-2.5284693,0.67300224,0.7762513,-0.00075083744,-0.012200711,-0.0165996,-0.065900266,-0.03575312,-0.043802954,-1.4478903,0.006171089,229.39903,9.229188,0.37488768,0.4188318,0.14606474,0.1175849,inf,inf,inf,inf,1,1,1,1,2,0,2,1,5,1,1,1,0,0
7029892000,7029892000,1036000,41.606704,-86.3556021,9.166826,21.949633,-8.622286,0.00034485216,0.00015009663,0.0,-1.0189993,-2.51826,0.6471729,0.7549032,-0.00075083744,-0.012200711,-0.0165996,0.01138479,0.022852784,-0.0795853,-1.4333006,0.006171089,229.39903,8.834281,0.3785174,0.41844228,0.14845152,0.11813985,inf,inf,inf,inf,1,1,1,1,2,0,2,1,5,1,1,1,0,0
7030388000,7030388000,1036000,41.606704,-86.3556021,8.669576,20.694872,-8.241871,0.00034485216,0.00015009663,0.0,-1.0218581,-2.502528,0.64220405,0.75302416,-0.00075083744,-0.012200711,-0.0165996,-0.029605642,0.03453619,-0.08941727,-1.4157361,0.006171089,229.39903,8.453866,0.3796896,0.4201508,0.14875051,0.11844267,inf,inf,inf,inf,1,1,1,1,2,0,2,1,5,1,1,1,0,0
7030892000,7030892000,1036000,41.606704,-86.3556021,8.169001,19.423515,-7.854529,0.00034485216,0.00015009663,0.0,-1.0347306,-2.4960353,0.6358186,0.7524148,-0.00075083744,-0.012200711,-0.0165996,-0.10015419,-0.02444205,-0.13219383,-1.4120026,0.006171089,229.39903,8.066524,0.3622293,0.41391042,0.14045571,0.11490713,inf,inf,inf,inf,1,1,1,1,2,0,2,1,5,1,1,1,0,0
7031388000,7031388000,1036000,41.606704,-86.3556021,7.6634088,18.17807,-7.4897165,0.00034485216,0.00015009663,0.0,-1.0563442,-2.4919038,0.62348425,0.7325871,-0.00075083744,-0.012200711,-0.0165996,-0.01623457,-0.036544517,-0.05493971,-1.3933821,0.006171089,229.39903,7.7017117,0.3861288,0.42183164,0.1523936,0.11944243,inf,inf,inf,inf,1,1,1,1,2,0,2,1,5,1,1,1,0,0
7031892000,7031892000,1036000,41.606704,-86.3556021,7.141233,16.922775,-7.122424,0.00034485216,0.00015009663,0.0,-1.0530635,-2.476596,0.63576776,0.7394073,-0.00075083744,-0.012200711,-0.0165996,0.027517624,-0.04541607,-0.05189801,-1.3775862,0.006171089,229.39903,7.3344193,0.36669293,0.4153569,0.14246027,0.115587234,inf,inf,inf,inf,1,1,1,1,2,0,2,1,5,1,1,1,0,0
7032388000,7032388000,1036000,41.606704,-86.3556021,6.628897,15.683267,-6.7563434,0.00034485216,0.00015009663,0.0,-1.0539056,-2.4877248,0.6367841,0.737448,-0.00075083744,-0.012200711,-0.0165996,-0.04278814,0.009446712,-0.067441784,-1.3716398,0.006171089,229.39903,6.9683385,0.3693671,0.41455057,0.1439718,0.11580742,inf,inf,inf,inf,1,1,1,1,2,0,2,1,5,1,1,1,0,0
7032884000,7032884000,1036000,41.606704,-86.3556021,6.1145983,14.443554,-6.397743,0.00034485216,0.00015009663,0.0,-1.0498832,-2.4857297,0.6537471,0.7462698,-0.00075083744,-0.012200711,-0.0165996,-0.08940685,-0.15132664,-0.07798156,-1.3510661,0.006171089,229.39903,6.6097383,0.3704491,0.41639483,0.14387047,0.11596784,inf,inf,inf,inf,1,1,1,1,2,0,2,1,5,1,1,1,0,0
7033388000,7033388000,1036000,41.606704,-86.3556021,5.587816,13.190081,-6.0267973,0.00034485216,0.00015009663,0.0,-1.0472934,-2.482653,0.65257883,0.74082404,-0.00075083744,-0.012200711,-0.0165996,-0.073393345,-0.10454939,-0.14547357,-1.3366263,0.006171089,229.39903,6.2387924,0.37333182,0.41888407,0.1452894,0.11647988,inf,inf,inf,inf,1,1,1,1,2,0,2,1,5,1,1,1,0,0
7033892000,7033892000,1036000,41.606704,-86.3556021,5.059657,11.932871,-5.659142,0.00034485216,0.00015009663,0.0,-1.0344796,-2.484078,0.6568878,0.73947716,-0.00075083744,-0.012200711,-0.0165996,-0.1568025,-0.04188553,-0.15008081,-1.3235737,0.006171089,229.39903,5.871137,0.37719277,0.4184318,0.14744563,0.11678599,inf,inf,inf,inf,1,1,1,1,2,0,2,1,5,1,1,1,0,0
7034388000,7034388000,1036000,41.606704,-86.3556021,4.537554,10.694076,-5.2934575,0.00034485216,0.00015009663,0.0,-1.033541,-2.4919105,0.66759366,0.74876785,-0.00075083744,-0.012200711,-0.0165996,-0.1139815,-0.044079617,-0.14763796,-1.301245,0.006171089,229.39903,5.5054526,0.37849852,0.42005947,0.14750205,0.11687803,inf,inf,inf,inf,1,1,1,1,2,0,2,1,5,1,1,1,0,0
7034892000,7034892000,1036000,41.606704,-86.3556021,3.9941554,9.420314,-4.9090896,0.00034485216,0.00015009663,0.0,-1.0309345,-2.5018141,0.66799927,0.75517905,-0.00075083744,-0.012200711,-0.0165996,-0.008272876,-0.050054777,-0.022772761,-1.2919285,0.006171089,229.39903,5.1210847,0.36124834,0.41365963,0.13922687,0.11327576,inf,inf,inf,inf,1,1,1,1,2,0,2,1,5,1,1,1,0,0
7035388000,7035388000,1036000,41.606704,-86.3556021,3.4681242,8.166126,-4.5410185,0.00034485216,0.00015009663,0.0,-1.0072783,-2.4808571,0.66056913,0.74428153,-0.00075083744,-0.012200711,-0.0165996,0.00990904,-0.05056357,-0.096363075,-1.2746109,0.006171089,229.39903,4.7530136,0.38365793,0.42103317,0.14979164,0.11718629,inf,inf,inf,inf,1,1,1,1,2,0,2,1,5,1,1,1,0,0
7035884000,7035884000,1036000,41.606704,-86.3556021,2.9555717,6.914182,-4.170128,0.00034485216,0.00015009663,0.0,-0.99532586,-2.476239,0.6638,0.7475622,-0.00075083744,-0.012200711,-0.0165996,0.045984555,0.03695919,-0.15934469,-1.2571619,0.006171089,229.39903,4.382123,0.36438918,0.4167644,0.14039986,0.11362951,inf,inf,inf,inf,1,1,1,1,2,0,2,1,5,1,1,1,0,0
7036388000,7036388000,1036000,41.606704,-86.3556021,2.4343877,5.644256,-3.7972682,0.00034485216,0.00015009663,0.0,-1.00018,-2.4754984,0.66709846,0.74721366,-0.00075083744,-0.012200711,-0.0165996,-0.12752731,0.02551821,-0.040355198,-1.2506398,0.006171089,229.39903,4.009263,0.3679792,0.41607493,0.14251606,0.11390755,inf,inf,inf,inf,1,1,1,1,2,0,2,1,5,1,1,1,0,0
7036892000,7036892000,1036000,41.606704,-86.3556021,1.9122019,4.37514,-3.4276435,0.00034485216,0.00015009663,0.0,-1.0051095,-2.4841523,0.67740077,0.7509141,-0.00075083744,-0.012200711,-0.0165996,-0.08597402,-0.016556311,-0.05996792,-1.2303245,0.006171089,229.39903,3.6396384,0.36993378,0.41828942,0.1429057,0.114230484,inf,inf,inf,inf,1,1,1,1,2,0,2,1,5,1,1,1,0,0
7037388000,7037388000,1036000,41.606704,-86.3556021,1.402512,3.1271532,-3.0616949,0.00034485216,0.00015009663,0.0,-0.9944667,-2.4744031,0.67943054,0.7475789,-0.00075083744,-0.012200711,-0.0165996,0.0021502308,0.07839349,-0.075667225,-1.2070785,0.006171089,229.39903,3.2736897,0.3721899,0.4170836,0.14405613,0.114249885,inf,inf,inf,inf,1,1,1,1,2,0,2,1,5,1,1,1,0,0
7037892000,7037892000,1036000,41.606704,-86.3556021,0.89315194,1.876712,-2.696118,0.00034485216,0.00015009663,0.0,-0.9969818,-2.4422417,0.699524,0.75645226,-0.00075083744,-0.012200711,-0.0165996,0.1121906,0.2051352,-0.089138806,-1.1975609,0.006171089,229.39903,2.908113,0.37480146,0.4193973,0.14506623,0.11471068,inf,inf,inf,inf,1,1,1,1,2,0,2,1,5,1,1,1,0,0
7038388000,7038388000,1036000,41.606704,-86.3556021,0.38916576,0.69215006,-2.3268745,0.00034485216,0.00015009663,0.0,-0.98962194,-2.2184036,0.7696028,0.8114459,-0.00075083744,-0.012200711,-0.0165996,0.14029968,0.8705504,0.013234962,-1.1846592,0.006171089,229.39903,2.5388694,0.37647483,0.41801375,0.14561035,0.11461399,inf,inf,inf,inf,1,1,1,1,2,0,2,1,5,1,1,1,0,0
7038892000,7038892000,1036000,41.606704,-86.3556021,-0.08850487,-0.3108983,-1.935583,0.00034485216,0.00015009663,0.0,-0.83320624,-1.587199,0.65872926,0.69663364,-0.00075083744,-0.012200711,-0.0165996,0.48333105,1.5170155,-0.754063,-1.1585677,0.006171089,229.39903,2.147578,0.3598707,0.41479295,0.13886935,0.111756675,inf,inf,inf,inf,1,1,1,1,2,0,2,1,5,1,1,1,0,0
7039388000,7039388000,1036000,41.606704,-86.3556021,-0.43256232,-0.93682617,-1.6785979,0.00034485216,0.00015009663,0.0,-0.52324617,-0.8386934,0.32504657,0.35989884,-0.00075083744,-0.012200711,-0.0165996,0.65229654,1.4196718,-0.67665803,-1.1421461,0.006171089,229.39903,1.8905929,0.38229132,0.41905722,0.1519853,0.11542179,inf,inf,inf,inf,1,1,1,1,2,0,2,1,5,1,1,1,0,0
7039892000,7039892000,1036000,41.606704,-86.3556021,-0.61720175,-1.2465589,-1.5668708,0.00034485216,0.00015009663,0.0,-0.23249616,-0.27425703,0.10529456,0.13533421,-0.00075083744,-0.012200711,-0.0165996,0.46177295,0.83047104,-0.26082346,-1.1196798,0.006171089,229.39903,1.7788658,0.3638898,0.41562748,0.1436109,0.112557344,inf,inf,inf,inf,1,1,1,1,2,0,2,1,5,1,1,1,0,0
7040388000,7040388000,1036000,41.606704,-86.3556021,-0.67147523,-1.3176911,-1.53651,0.00034485216,0.00015009663,0.0,-0.05498186,0.03042585,0.018740583,0.04088865,-0.00075083744,-0.012200711,-0.0165996,0.15810734,0.36333054,-0.14682864,-1.0959492,0.006171089,229.39903,1.748505,0.38820857,0.4201167,0.1553323,0.11678418,inf,inf,inf,inf,1,1,1,1,2,0,2,1,5,1,1,1,0,0
7040892000,7040892000,1036000,41.606704,-86.3556021,-0.6559667,-1.282457,-1.5442107,0.00034485216,0.00015009663,0.0,0.012891571,0.12807924,0.011597481,0.015145384,-0.00075083744,-0.012200711,-0.0165996,0.03068687,0.030307176,-0.11047261,-1.0972797,0.006171089,229.39903,1.7562057,0.36818305,0.41654626,0.143475,0.11406786,inf,inf,inf,inf,1,1,1,1,2,0,2,1,5,1,1,1,0,0
7041388000,7041388000,1036000,41.606704,-86.3556021,-0.62369365,-1.2218152,-1.482642,0.00034485216,0.00015009663,0.0,0.029567694,0.14226677,0.5453347,0.5268414,-0.00075083744,-0.012200711,-0.0165996,-0.026486985,-0.11244956,2.0943456,-1.0999084,0.006171089,229.39903,1.6946371,0.37071282,0.41541025,0.14251785,0.11489712,inf,inf,inf,inf,1,1,1,1,2,0,2,1,5,1,1,1,0,0
7041892000,7041892000,1036000,41.606704,-86.3556021,-0.5978853,-1.1760511,-1.1228527,0.00034485216,0.00015009663,0.0,-0.0026970354,0.061404996,0.74889857,0.7135868,-0.00075083744,-0.012200711,-0.0165996,-0.21201293,-0.29602772,-1.7506853,-1.0993936,0.006171089,229.39903,1.3348477,0.37336043,0.4178737,0.14196517,0.11617235,inf,inf,inf,inf,1,1,1,1,2,0,2,1,5,1,1,1,0,0
7042388000,7042388000,1036000,41.606704,-86.3556021,-0.59005386,-1.1573346,-0.80875397,0.00034485216,0.00015009663,0.0,-0.026506802,0.018081704,0.68944097,0.643907,-0.00075083744,-0.012200711,-0.0165996,-0.066386655,-0.08752675,0.018798681,-1.0975902,0.006171089,229.39903,1.020749,0.3750975,0.41682458,0.14325137,0.11680535,inf,inf,inf,inf,1,1,1,1,2,0,2,1,5,1,1,1,0,0
7042892000,7042892000,1036000,41.606704,-86.3556021,-0.5937073,-1.1603023,-0.49869955,0.00034485216,0.00015009663,0.0,-0.036448218,-0.031119086,0.7147009,0.6578521,-0.00075083744,-0.012200711,-0.0165996,0.052836653,-0.055417128,0.078530915,-1.0966377,0.006171089,229.39903,0.71069455,0.37852994,0.4194674,0.14536084,0.11807574,inf,inf,inf,inf,1,1,1,1,2,0,2,1,5,1,1,1,0,0
7043388000,7043388000,1036000,41.606704,-86.3556021,-0.60010415,-1.1818383,-0.1732408,0.00034485216,0.00015009663,0.0,-0.032169666,-0.04993614,0.7142168,0.6592119,-0.00075083744,-0.012200711,-0.0165996,0.050123155,-0.029445099,0.15328725,-1.0961604,0.006171089,229.39903,0.3852358,0.37956834,0.41822326,0.1457923,0.11834038,inf,inf,inf,inf,1,1,1,1,2,0,2,1,5,1,1,1,0,0
7043892000,7043892000,1036000,41.606704,-86.3556021,-0.6035859,-1.206277,0.15042526,0.00034485216,0.00015009663,0.0,-0.0352386,-0.056404248,0.71507263,0.654994,-0.00075083744,-0.012200711,-0.0165996,0.07642743,-0.050116077,0.09870242,-1.0964228,0.006171089,229.39903,0.1,0.3621713,0.41489542,0.13812716,0.11540613,inf,inf,inf,inf,1,1,1,1,2,0,2,1,5,1,1,1,0,0
7044388000,7044388000,1036000,41.606704,-86.3556021,-0.61819327,-1.2267547,0.28508174,0.00034485216,0.00015009663,0.0,-0.026844317,-0.0045425408,0.122348286,0.12201761,-0.00075083744,-0.012200711,-0.0165996,0.03666673,-0.012984116,-0.2852949,-1.0986495,0.006171089,229.39903,0.108998686,0.38585705,0.42224097,0.15239142,0.11362467,inf,inf,inf,inf,1,1,1,1,2,0,2,1,5,1,1,1,0,0
7044892000,7044892000,1036000,41.606704,-86.3556021,-0.6217551,-1.2375813,0.31570876,0.00034485216,0.00015009663,0.0,-0.027945016,-0.0058062123,0.13605441,0.10295242,-0.00075083744,-0.012200711,-0.0165996,-0.18342362,0.07814344,1.0552899,-1.0975063,0.006171089,229.39903,0.1,0.36658764,0.41549653,0.14468335,0.10385769,inf,inf,inf,inf,1,1,1,1,2,0,2,1,5,1,1,1,0,0
7045388000,7045388000,1036000,41.606704,-86.3556021,-0.62035114,-1.2417626,0.3115947,0.00034485216,0.00015009663,0.0,-0.017640827,-0.008809047,0.12940663,0.05476076,-0.00075083744,-0.012200711,-0.0165996,0.079225846,0.097787365,0.025479058,-1.0971415,0.006171089,229.39903,0.1,0.36926073,0.41340995,0.15005818,0.10030005,inf,inf,inf,inf,1,1,1,1,2,0,2,1,5,1,1,1,0,0
7045892000,7045892000,1036000,41.606704,-86.3556021,-0.6206453,-1.2428131,0.32141894,0.00034485216,0.00015009663,0.0,-0.0068531292,-0.010100031,0.13719445,0.048374817,-0.00075083744,-0.012200711,-0.0165996,0.017836796,-0.038814664,-0.80310553,-1.0974277,0.006171089,229.39903,0.1,0.37123343,0.41434437,0.15388927,0.09922196,inf,inf,inf,inf,1,1,1,1,2,0,2,1,5,1,1,1,0,0
7046388000,7046388000,1036000,41.606704,-86.3556021,-0.61644894,-1.2419372,0.32095256,0.00034485216,0.00015009663,0.0,-0.0023200861,-0.01045221,0.13114357,0.027080653,-0.00075083744,-0.012200711,-0.0165996,-0.014431472,0.0069727744,0.20999548,-1.097285,0.006171089,229.39903,0.1,0.37357867,0.41168344,0.15753801,0.09957249,inf,inf,inf,inf,1,1,1,1,2,0,2,1,5,0,1,1,1,0
7046892000,7046892000,1036000,41.606704,-86.3556021,-0.6124462,-1.2395567,0.20059884,0.00034485216,0.00015009663,0.0,0.003216352,-0.0066748867,0.076001,-0.14773364,-0.00075083744,-0.012200711,-0.0165996,-0.04151075,-0.05736574,-0.019555975,-1.0972784,0.006171089,229.39903,0.1,0.30204678,0.3212469,0.015031691,0.010981732,inf,inf,inf,inf,1,1,1,1,2,0,2,1,5,0,1,1,1,0
7047388000,7047388000,1036000,41.606704,-86.3556021,-0.6070775,-1.2358325,-0.0040613357,0.00034485216,0.00015009663,0.0,0.00414966,0.0009201951,0.0014288056,-0.28171858,-0.00075083744,-0.012200711,-0.0165996,0.03176677,0.09116389,0.0312663,-1.0972556,0.006171089,229.39903,0.11132465,0.28368,0.307473,0.020386664,0.014422306,inf,inf,inf,inf,1,1,1,1,2,0,2,1,5,0,1,1,1,0
7047892000,7047892000,1036000,41.606704,-86.3556021,-0.60248935,-1.2299297,-0.019338965,0.00034485216,0.00015009663,0.0,0.006829532,0.0048836516,-0.0059112716,-0.1733519,-0.00075083744,-0.012200711,-0.0165996,0.009939716,-0.05830325,0.024266476,-1.0972899,0.006171089,229.39903,0.14671552,0.2648214,0.2949833,0.011525064,0.00818574,inf,inf,inf,inf,1,1,1,1,2,0,2,1,5,0,1,1,1,0
7048388000,7048388000,1036000,41.606704,-86.3556021,-0.5949314,-1.2261916,-0.0016487443,0.00034485216,0.00015009663,0.0,0.008009597,0.0011174348,-0.0055982526,-0.085831694,-0.00075083744,-0.012200711,-0.0165996,-0.014727914,-0.03850841,0.6206286,-1.0969849,0.006171089,229.39903,0.1399908,0.25919938,0.28624296,0.017588368,0.012590322,inf,inf,inf,inf,1,1,1,1,2,0,2,1,5,0,1,1,1,0
7048884000,7048884000,1036000,41.606704,-86.3556021,-0.59331435,-1.2270138,0.017739631,0.00034485216,0.00015009663,0.0,-0.00083575526,0.001385598,-0.0068295877,-0.03873495,-0.00075083744,-0.012200711,-0.0165996,0.06895858,0.09844852,0.0054817013,-1.096889,0.006171089,229.39903,0.13163373,0.24633287,0.27758035,0.005802567,0.0041111996,inf,inf,inf,inf,1,1,1,1,2,0,2,1,5,0,1,1,1,0
