timestamp,timestamp_sample,ref_timestamp,ref_lat,ref_lon,x,y,z,delta_xy[0],delta_xy[1],delta_z,vx,vy,vz,z_deriv,delta_vxy[0],delta_vxy[1],delta_vz,ax,ay,az,heading,delta_heading,ref_alt,dist_bottom,eph,epv,evh,evv,vxy_max,vz_max,hagl_min,hagl_max,xy_valid,z_valid,v_xy_valid,v_z_valid,xy_reset_counter,z_reset_counter,vxy_reset_counter,vz_reset_counter,heading_reset_counter,heading_good_for_control,xy_global,z_global,dist_bottom_valid,dist_bottom_sensor_bitfield
6971380000,6971380000,1036000,41.606704,-86.3556021,-0.6452512,-1.3878456,0.112193786,0.00034446313,0.00015069879,0.0,-0.0011871897,-0.0024184377,6.7438945e-05,-0.0012270679,-0.0007434546,-0.012204854,-0.016599584,-0.026200503,-0.009355422,-0.09935169,-1.0527651,0.0088405255,229.39903,0.1,0.08485707,0.102443494,0.0081084315,0.0057622544,inf,inf,inf,inf,1,1,1,1,2,0,2,1,4,0,1,1,1,0
6971884000,6971884000,1036000,41.606704,-86.3556021,-0.64603126,-1.3872182,0.11036075,0.00034446313,0.00015069879,0.0,-0.0015595548,-0.00153395,0.0010357066,-8.051713e-05,-0.0007434546,-0.012204854,-0.016599584,0.019842885,-0.020489343,0.6006741,-1.0523405,0.0088405255,229.39903,0.100454055,0.08457777,0.10206116,0.015852915,0.01140159,inf,inf,inf,inf,1,1,1,1,2,0,2,1,4,0,1,1,1,0
6972380000,6972380000,1036000,41.606704,-86.3556021,-0.64575607,-1.386553,0.110791765,0.00034446313,0.00015069879,0.0,0.00078568765,0.0008829243,0.0030233564,0.0028309005,-0.0007434546,-0.012204854,-0.016599584,-0.02392221,0.028726865,0.16444077,-1.052062,0.0088405255,229.39903,0.1006935,0.084320225,0.10173441,0.020821558,0.015116207,inf,inf,inf,inf,1,1,1,1,2,0,2,1,4,0,1,1,1,0
6972884000,6972884000,1036000,41.606704,-86.3556021,-0.64526844,-1.3869622,0.11192024,0.00034446313,0.00015069879,0.0,0.0029957474,-0.0012704037,0.0024579652,0.0023659333,-0.0007434546,-0.012204854,-0.016599584,-0.036572624,0.028556539,-0.44274893,-1.0515113,0.0088405255,229.39903,0.100085765,0.08402029,0.10134833,0.01284694,0.009192807,inf,inf,inf,inf,1,1,1,1,2,0,2,1,4,0,1,1,1,0
6973380000,6973380000,1036000,41.606704,-86.3556021,-0.64520496,-1.3871802,0.112938136,0.00034446313,0.00015069879,0.0,-0.0017748878,-0.0006929102,0.003346271,0.0022476085,-0.0007434546,-0.012204854,-0.016599584,-0.07373521,0.025962835,0.0033862256,-1.0514246,0.0088405255,229.39903,0.1,0.08375769,0.1010239,0.018461479,0.013342055,inf,inf,inf,inf,1,1,1,1,2,0,2,1,4,0,1,1,1,0
6973876000,6973876000,1036000,41.606704,-86.3556021,-0.6459512,-1.3876116,0.11149237,0.00034446313,0.00015069879,0.0,-0.0024985382,-0.003183812,0.0016625816,0.00021239223,-0.0007434546,-0.012204854,-0.016599584,-0.028380344,0.008415448,-0.53115934,-1.0513813,0.0088405255,229.39903,0.1,0.08333257,0.10065193,0.008108384,0.0057622534,inf,inf,inf,inf,1,1,1,1,2,0,2,1,4,0,1,1,1,0
6974380000,6974380000,1036000,41.606704,-86.3556021,-0.6469623,-1.3877583,0.11224869,0.00034446313,0.00015069879,0.0,-0.0014599652,-0.0031252732,0.0062695686,0.004826955,-0.0007434546,-0.012204854,-0.016599584,-0.014111527,-0.016412694,0.04615256,-1.0514947,0.0088405255,229.39903,0.1,0.08321332,0.10028994,0.01585193,0.01140219,inf,inf,inf,inf,1,1,1,1,2,0,2,1,4,0,1,1,1,0
6974876000,6974876000,1036000,41.606704,-86.3556021,-0.6447425,-1.3862215,0.11139361,0.00034446313,0.00015069879,0.0,0.003438558,0.0024866606,0.0001633692,-0.0015801117,-0.0007434546,-0.012204854,-0.016599584,-0.066453576,-0.10476334,-0.0117161,-1.0512437,0.0088405255,229.39903,0.10014952,0.08282842,0.099981114,0.020807013,0.01511163,inf,inf,inf,inf,1,1,1,1,2,0,2,1,4,0,1,1,1,0
6975380000,6975380000,1036000,41.606704,-86.3556021,-0.6450809,-1.3858716,0.110923186,0.00034446313,0.00015069879,0.0,-0.0015987768,0.0027573428,-0.0010211311,-0.0018962398,-0.0007434546,-0.012204854,-0.016599584,-0.017002346,0.04586387,-0.03586343,-1.0508554,0.0088405255,229.39903,0.10038969,0.082544014,0.09961448,0.012849368,0.009192799,inf,inf,inf,inf,1,1,1,1,2,0,2,1,4,0,1,1,1,0
6975876000,6975876000,1036000,41.606704,-86.3556021,-0.64646745,-1.3850529,0.11068612,0.00034446313,0.00015069879,0.0,-0.00045540978,0.0074231424,0.00059147435,0.00031454326,-0.0007434546,-0.012204854,-0.016599584,-0.02223066,-0.00045694446,0.61025834,-1.0511564,0.0088405255,229.39903,0.10081309,0.08229708,0.09930728,0.018452963,0.013339548,inf,inf,inf,inf,1,1,1,1,2,0,2,1,4,0,1,1,1,0
6976380000,6976380000,1036000,41.606704,-86.3556021,-0.64614487,-1.3859625,0.1102807,0.00034446313,0.00015069879,0.0,-0.001017193,0.0032844888,-0.0053711766,-0.005362929,-0.0007434546,-0.012204854,-0.016599584,0.14255783,0.092664845,-0.8814959,-1.0507851,0.0088405255,229.39903,0.10085436,0.082085766,0.098978154,0.023433344,0.017097747,inf,inf,inf,inf,1,1,1,1,2,0,2,1,4,0,1,1,1,0
6976876000,6976876000,1036000,41.606704,-86.3556021,-0.64737624,-1.38538,0.11080872,0.00034446313,0.00015069879,0.0,-0.0066637453,0.0048982534,-0.008660025,-0.0084534,-0.0007434546,-0.012204854,-0.016599584,0.058804646,0.06842227,-1.7941557,-1.0508649,0.0088405255,229.39903,0.10032634,0.083773404,0.09959037,0.045101084,0.034011107,inf,inf,inf,inf,1,1,1,1,2,0,2,1,4,0,1,1,1,0
6977380000,6977380000,1036000,41.606704,-86.3556021,-0.65345263,-1.3751771,0.080614045,0.00034446313,0.00015069879,0.0,-0.019259077,0.04247544,-0.32488632,-0.32470125,-0.0007434546,-0.012204854,-0.016599584,-0.13232613,0.10832201,-1.9513024,-1.0572214,0.0088405255,229.39903,0.13138065,0.09190968,0.10354758,0.06460599,0.04894604,inf,inf,inf,inf,1,1,1,1,2,0,2,1,4,0,1,1,1,0
6977884000,6977884000,1036000,41.606704,-86.3556021,-0.6596082,-1.3514006,-0.3378493,0.00034446313,0.00015069879,0.0,-0.0075464007,0.028417692,-1.3447573,-1.3429687,-0.0007434546,-0.012204854,-0.016599584,-0.022105718,-0.09461464,-2.1049743,-1.056614,0.0088405255,229.39903,0.54984397,0.10951755,0.11356119,0.084025614,0.06227762,inf,inf,inf,inf,1,1,1,1,2,0,2,1,4,0,1,1,1,0
6978380000,6978380000,1036000,41.606704,-86.3556021,-0.6578426,-1.3458987,-1.0569006,0.00034446313,0.00015069879,0.0,0.005332524,-0.003506536,-1.2268661,-1.2254845,-0.0007434546,-0.012204854,-0.016599584,-0.027104927,-0.048737723,1.2253819,-1.0557319,0.0088405255,229.39903,1.2688953,0.13955234,0.13140957,0.10221644,0.07541035,inf,inf,inf,inf,1,1,1,1,2,0,2,1,4,0,1,1,1,0
6978884000,6978884000,1036000,41.606704,-86.3556021,-0.6532265,-1.3500643,-1.5401862,0.00034446313,0.00015069879,0.0,0.0039584045,-0.010496581,-0.72240776,-0.72394645,-0.0007434546,-0.012204854,-0.016599584,-0.02782191,-0.0003250201,0.5942787,-1.051546,0.0035601552,229.39903,1.7521808,0.16966556,0.15487614,0.10574388,0.08530009,inf,inf,inf,inf,1,1,1,1,2,0,2,1,5,0,1,1,1,0
6979380000,6979380000,1036000,41.606704,-86.3556021,-0.6508906,-1.3574153,-1.8261939,0.00034446313,0.00015069879,0.0,0.001817214,-0.013166588,-0.4479718,-0.45057178,-0.0007434546,-0.012204854,-0.016599584,0.0046308925,0.05604464,0.7094554,-1.0494404,0.0035601552,229.39903,2.0381887,0.20792805,0.18611132,0.114702664,0.09660511,inf,inf,inf,inf,1,1,1,1,2,0,2,1,5,0,1,1,1,0
6979876000,6979876000,1036000,41.606704,-86.3556021,-0.6493508,-1.362352,-2.0031784,0.00034446313,0.00015069879,0.0,-0.001308133,-0.0062063667,-0.2838559,-0.28558,-0.0007434546,-0.012204854,-0.016599584,-0.018181892,-0.057678454,0.29058653,-1.0488248,0.0035601552,229.39903,2.215173,0.23004901,0.21419881,0.12010297,0.10179085,inf,inf,inf,inf,1,1,1,1,2,0,2,1,5,1,1,1,1,0
6980380000,6980380000,1036000,41.606704,-86.3556021,-0.64806134,-1.3656212,-2.117216,0.00034446313,0.00015069879,0.0,-0.004793634,0.00050893123,-0.18356471,-0.18338746,-0.0007434546,-0.012204854,-0.016599584,-0.0023487532,0.023472488,0.34276387,-1.0481278,0.0035601552,229.39903,2.3292108,0.2575988,0.24568918,0.13319533,0.10770014,inf,inf,inf,inf,1,1,1,1,2,0,2,1,5,1,1,1,1,0
6980876000,6980876000,1036000,41.606704,-86.3556021,-0.65226996,-1.3655014,-2.0925891,0.00034446313,0.00015069879,0.0,-0.0062249633,0.015310337,0.07291243,0.07872984,-0.0007434546,-0.012204854,-0.016599584,0.011267014,0.119328365,-0.29426166,-1.0482382,0.0035601552,229.39903,2.3045838,0.2817296,0.2747439,0.14325248,0.11165702,inf,inf,inf,inf,1,1,1,1,2,0,2,1,5,1,1,1,1,0
6981380000,6981380000,1036000,41.606704,-86.3556021,-0.6533813,-1.3474917,-2.103509,0.00034446313,0.00015069879,0.0,-0.00618024,0.14100428,-0.20129919,-0.18666096,-0.0007434546,-0.012204854,-0.016599584,0.020740926,0.63901734,-0.714154,-1.0515696,0.0035601552,229.39903,2.3155036,0.3037063,0.3027682,0.1525189,0.11461642,inf,inf,inf,inf,1,1,1,1,2,0,2,1,5,1,1,1,0,0
6981876000,6981876000,1036000,41.606704,-86.3556021,-0.65197664,-1.1847545,-2.2701092,0.00034446313,0.00015069879,0.0,-0.0076453486,0.66057175,-0.49526453,-0.4794804,-0.0007434546,-0.012204854,-0.016599584,-0.0234761,1.5869585,-0.5465234,-1.049809,0.0035601552,229.39903,2.4821038,0.3230266,0.32602853,0.16055161,0.116153926,inf,inf,inf,inf,1,1,1,1,2,0,2,1,5,1,1,1,0,0
6982380000,6982380000,1036000,41.606704,-86.3556021,-0.64862466,-0.6861291,-2.5602534,0.00034446313,0.00015069879,0.0,-0.0036883308,1.4307808,-0.65064037,-0.63867813,-0.0007434546,-0.012204854,-0.016599584,0.0153595945,1.5177603,-0.28445202,-1.0523092,0.0035601552,229.39903,2.772248,0.3384983,0.34593192,0.16576189,0.11656523,inf,inf,inf,inf,1,1,1,1,2,0,2,1,5,1,1,1,0,0
6982884000,6982884000,1036000,41.606704,-86.3556021,-0.6304813,0.1740898,-2.9061341,0.00034446313,0.00015069879,0.0,-0.005894829,2.019556,-0.7042806,-0.6978556,-0.0007434546,-0.012204854,-0.016599584,0.022816835,0.93030447,-0.18316512,-1.0630896,0.0035601552,229.39903,3.1181288,0.33243343,0.35605514,0.15556069,0.11341687,inf,inf,inf,inf,1,1,1,1,2,0,2,1,5,1,1,1,0,0
6983380000,6983380000,1036000,41.606704,-86.3556021,-0.6086221,1.2593657,-3.265124,0.00034446313,0.00015069879,0.0,-0.019900497,2.3312447,-0.6969092,-0.69966525,-0.0007434546,-0.012204854,-0.016599584,-0.12447022,0.4075323,0.19117531,-1.0733409,0.0035601552,229.39903,3.4771187,0.36443672,0.37759638,0.16808176,0.11697243,inf,inf,inf,inf,1,1,1,1,2,0,2,1,5,1,1,1,0,0
6983876000,6983876000,1036000,41.606704,-86.3556021,-0.5946512,2.455052,-3.6250832,0.00034446313,0.00015069879,0.0,-0.032804932,2.4584105,-0.6704455,-0.6875014,-0.0007434546,-0.012204854,-0.016599584,-0.08708656,0.15454984,0.08395401,-1.0782349,0.0035601552,229.39903,3.8370779,0.34998354,0.38134235,0.15075529,0.11327949,inf,inf,inf,inf,1,1,1,1,2,0,2,1,5,1,1,1,0,0
6984380000,6984380000,1036000,41.606704,-86.3556021,-0.60261863,3.718371,-3.9859037,0.00034446313,0.00015069879,0.0,-0.048005983,2.5085945,-0.6498944,-0.6814724,-0.0007434546,-0.012204854,-0.016599584,-0.0070618237,-0.067926414,0.042444963,-1.0864055,0.0035601552,229.39903,4.1978984,0.35813,0.3926306,0.14921759,0.11384533,inf,inf,inf,inf,1,1,1,1,2,0,2,1,5,1,1,1,0,0
6984884000,6984884000,1036000,41.606704,-86.3556021,-0.6225585,5.0029764,-4.337439,0.00034446313,0.00015069879,0.0,-0.04283845,2.5241363,-0.6470781,-0.6859258,-0.0007434546,-0.012204854,-0.016599584,0.033220578,0.058821596,-0.03932888,-1.0935588,0.0035601552,229.39903,4.5494337,0.36327022,0.3992172,0.14693752,0.11372847,inf,inf,inf,inf,1,1,1,1,2,0,2,1,5,1,1,1,0,0
6985380000,6985380000,1036000,41.606704,-86.3556021,-0.64286697,6.273346,-4.6872077,0.00034446313,0.00015069879,0.0,-0.032278813,2.521038,-0.6328505,-0.6800831,-0.0007434546,-0.012204854,-0.016599584,0.056112666,0.047557972,-0.05053269,-1.1050628,0.0035601552,229.39903,4.8992023,0.36781865,0.40362042,0.14634542,0.11378774,inf,inf,inf,inf,1,1,1,1,2,0,2,1,5,1,1,1,0,0
6985876000,6985876000,1036000,41.606704,-86.3556021,-0.6645096,7.5269346,-5.036116,0.00034446313,0.00015069879,0.0,-0.017013913,2.489046,-0.6261331,-0.6799902,-0.0007434546,-0.012204854,-0.016599584,0.1796797,-0.06903692,-0.074906334,-1.112055,0.0035601552,229.39903,5.248111,0.3726133,0.40954825,0.14731403,0.114596546,inf,inf,inf,inf,1,1,1,1,2,0,2,1,5,1,1,1,0,0
6986380000,6986380000,1036000,41.606704,-86.3556021,-0.68107784,8.7897415,-5.383871,0.00034446313,0.00015069879,0.0,-0.008569855,2.4828732,-0.6457548,-0.69901866,-0.0007434546,-0.012204854,-0.016599584,-0.09416775,0.23206864,-1.1648899,-1.1216882,0.0035601552,229.39903,5.5958657,0.37575498,0.41483268,0.14742288,0.11530435,inf,inf,inf,inf,1,1,1,1,2,0,2,1,5,1,1,1,0,0
6986884000,6986884000,1036000,41.606704,-86.3556021,-0.69078934,10.050422,-5.743315,0.00034446313,0.00015069879,0.0,0.0077852504,2.4703023,-0.64600235,-0.7054259,-0.0007434546,-0.012204854,-0.016599584,0.058996502,-0.18293795,0.057998046,-1.1322254,0.0035601552,229.39903,5.95531,0.35913083,0.40984336,0.13892338,0.11227348,inf,inf,inf,inf,1,1,1,1,2,0,2,1,5,1,1,1,0,0
6987380000,6987380000,1036000,41.606704,-86.3556021,-0.69324154,11.283834,-6.1009645,0.00034446313,0.00015069879,0.0,0.013775486,2.4693549,-0.6417381,-0.7061472,-0.0007434546,-0.012204854,-0.016599584,-0.008785601,0.04533195,0.03811804,-1.1409316,0.0035601552,229.39903,6.312959,0.3820712,0.41988382,0.14940472,0.116646126,inf,inf,inf,inf,1,1,1,1,2,0,2,1,5,1,1,1,0,0
6987884000,6987884000,1036000,41.606704,-86.3556021,-0.697259,12.54852,-6.4669194,0.00034446313,0.00015069879,0.0,0.009912401,2.4715593,-0.6366706,-0.70800084,-0.0007434546,-0.012204854,-0.016599584,0.09273358,0.06392862,-0.00641315,-1.1526997,0.0035601552,229.39903,6.678914,0.36379054,0.41380486,0.1403514,0.11346062,inf,inf,inf,inf,1,1,1,1,2,0,2,1,5,1,1,1,0,0
6988380000,6988380000,1036000,41.606704,-86.3556021,-0.70150506,13.784554,-6.817088,0.00034446313,0.00015069879,0.0,0.011175578,2.4589512,-0.6338674,-0.703629,-0.0007434546,-0.012204854,-0.016599584,-0.04928629,0.02810165,-0.013319838,-1.1595622,0.0035601552,229.39903,7.029083,0.36680728,0.4165607,0.14227802,0.11446378,inf,inf,inf,inf,1,1,1,1,2,0,2,1,5,1,1,1,0,0
6988884000,6988884000,1036000,41.606704,-86.3556021,-0.6985774,15.033802,-7.169898,0.00034446313,0.00015069879,0.0,0.0183007,2.4682772,-0.6449863,-0.70979923,-0.0007434546,-0.012204854,-0.016599584,-0.037676178,0.021080788,-0.08842448,-1.1708473,0.0035601552,229.39903,7.3818927,0.3689363,0.4164914,0.14302345,0.114909925,inf,inf,inf,inf,1,1,1,1,2,0,2,1,5,1,1,1,0,0
6989380000,6989380000,1036000,41.606704,-86.3556021,-0.6955786,16.268164,-7.523772,0.00034446313,0.00015069879,0.0,0.0142739,2.4683049,-0.6493548,-0.7139167,-0.0007434546,-0.012204854,-0.016599584,0.12295758,-0.0636793,0.2783238,-1.1776416,0.0035601552,229.39903,7.7357664,0.37129113,0.41576967,0.14441875,0.115364216,inf,inf,inf,inf,1,1,1,1,2,0,2,1,5,1,1,1,0,0
6989876000,6989876000,1036000,41.606704,-86.3556021,-0.69251466,17.498747,-7.87457,0.00034446313,0.00015069879,0.0,0.013982169,2.4787185,-0.6471903,-0.7085158,-0.0007434546,-0.012204854,-0.016599584,-0.012777766,-0.07711016,0.075319715,-1.1885998,0.0035601552,229.39903,8.086565,0.37320286,0.41789785,0.14531855,0.11606868,inf,inf,inf,inf,1,1,1,1,2,0,2,1,5,1,1,1,0,0
6990380000,6990380000,1036000,41.606704,-86.3556021,-0.6898149,18.753275,-8.2289505,0.00034446313,0.00015069879,0.0,0.008341175,2.480423,-0.6475758,-0.70430136,-0.0007434546,-0.012204854,-0.016599584,0.018895138,-0.0866462,0.04160398,-1.1922091,0.0035601552,229.39903,8.440946,0.37560096,0.42042443,0.14646482,0.116826124,inf,inf,inf,inf,1,1,1,1,2,0,2,1,5,1,1,1,0,0
6990884000,6990884000,1036000,41.606704,-86.3556021,-0.6898777,20.014133,-8.582491,0.00034446313,0.00015069879,0.0,0.0103727775,2.4797735,-0.6602284,-0.7127562,-0.0007434546,-0.012204854,-0.016599584,0.071741946,0.0073476145,0.0033582859,-1.2020309,0.0035601552,229.39903,8.794486,0.3591214,0.4141802,0.13889545,0.11363775,inf,inf,inf,inf,1,1,1,1,2,0,2,1,5,1,1,1,0,0
6991380000,6991380000,1036000,41.606704,-86.3556021,-0.6851242,21.255499,-8.935395,0.00034446313,0.00015069879,0.0,0.008092421,2.498211,-0.67440915,-0.7228802,-0.0007434546,-0.012204854,-0.016599584,0.041979983,0.12658478,-0.012818786,-1.2092316,0.0035601552,229.39903,9.14739,0.3812732,0.4189419,0.14973402,0.11761606,inf,inf,inf,inf,1,1,1,1,2,0,2,1,5,1,1,1,0,0
6991876000,6991876000,1036000,41.606704,-86.3556021,-0.68251836,22.494753,-9.299774,0.00034446313,0.00015069879,0.0,0.0036076498,2.5009856,-0.66241074,-0.71631765,-0.0007434546,-0.012204854,-0.016599584,-0.061778385,-0.013388251,-0.0325889,-1.2184595,0.0035601552,229.39903,9.511769,0.36252156,0.41507462,0.1404883,0.11434682,inf,inf,inf,inf,1,1,1,1,2,0,2,1,5,1,1,1,0,0
6992380000,6992380000,1036000,41.606704,-86.3556021,-0.6799003,23.751205,-9.654385,0.00034446313,0.00015069879,0.0,0.0034355388,2.493907,-0.66391736,-0.7122613,-0.0007434546,-0.012204854,-0.016599584,-0.08915198,-0.010609979,0.15889008,-1.222657,0.0035601552,229.39903,9.86638,0.387091,0.42068413,0.15269706,0.11866003,inf,inf,inf,inf,1,1,1,1,2,0,2,1,5,1,1,1,0,0
6992884000,6992884000,1036000,41.606704,-86.3556021,-0.68142635,25.002686,-10.018901,0.00034446313,0.00015069879,0.0,0.004111389,2.4963279,-0.6665012,-0.7184804,-0.0007434546,-0.012204854,-0.016599584,0.09815712,0.032817695,0.045024727,-1.2306864,0.0035601552,229.39903,10.230896,0.36734274,0.4171052,0.14270031,0.11526229,inf,inf,inf,inf,1,1,1,1,2,0,2,1,5,1,1,1,0,0
6993380000,6993380000,1036000,41.606704,-86.3556021,-0.6838709,26.235924,-10.37614,0.00034446313,0.00015069879,0.0,0.00087369635,2.5027184,-0.66395664,-0.7167505,-0.0007434546,-0.012204854,-0.016599584,-0.02148094,0.0007148082,0.041057292,-1.2362874,0.0035601552,229.39903,10.588135,0.36989546,0.4160913,0.14418961,0.11548247,inf,inf,inf,inf,1,1,1,1,2,0,2,1,5,1,1,1,0,0
6993876000,6993876000,1036000,41.606704,-86.3556021,-0.68504584,27.47474,-10.722543,0.00034446313,0.00015069879,0.0,0.005138584,2.5160313,-0.67070293,-0.71504873,-0.0007434546,-0.012204854,-0.016599584,-0.03651931,0.021002494,0.012171391,-1.241669,0.0035601552,229.39903,10.934538,0.37201244,0.41796333,0.14513388,0.11592942,inf,inf,inf,inf,1,1,1,1,2,0,2,1,5,1,1,1,0,0
6994380000,6994380000,1036000,41.606704,-86.3556021,-0.68442494,28.734604,-11.078385,0.00034446313,0.00015069879,0.0,0.0069796904,2.5127628,-0.672525,-0.7137452,-0.0007434546,-0.012204854,-0.016599584,0.10430672,-0.0009825571,-0.0066422555,-1.2502403,0.0035601552,229.39903,11.2903805,0.37454754,0.41743508,0.14618126,0.116124645,inf,inf,inf,inf,1,1,1,1,2,0,2,1,5,1,1,1,0,0
6994876000,6994876000,1036000,41.606704,-86.3556021,-0.68589175,29.965012,-11.43951,0.00034446313,0.00015069879,0.0,0.0057008076,2.4995584,-0.65867275,-0.7056485,-0.0007434546,-0.012204854,-0.016599584,-0.013411875,-0.18522437,0.034785766,-1.2577208,0.0035601552,229.39903,11.651505,0.37737015,0.4194236,0.1476806,0.11668458,inf,inf,inf,inf,1,1,1,1,2,0,2,1,5,1,1,1,0,0
6995380000,6995380000,1036000,41.606704,-86.3556021,-0.6874379,31.186125,-11.785605,0.00034446313,0.00015069879,0.0,0.009061208,2.3332005,-0.6307108,-0.672232,-0.0007434546,-0.012204854,-0.016599584,-0.16660269,-1.0595726,1.4723165,-1.2654866,0.0035601552,229.39903,11.997601,0.37925416,0.41882253,0.1479664,0.11674431,inf,inf,inf,inf,1,1,1,1,2,0,2,1,5,1,1,1,0,0
6995884000,6995884000,1036000,41.606704,-86.3556021,-0.6877215,32.226215,-12.095491,0.00034446313,0.00015069879,0.0,0.008216983,1.7478229,-0.48498133,-0.52361965,-0.0007434546,-0.012204854,-0.016599584,0.05429896,-1.5353291,0.578124,-1.2710733,0.0035601552,229.39903,12.307487,0.36176896,0.4127728,0.13950948,0.1133653,inf,inf,inf,inf,1,1,1,1,2,0,2,1,5,1,1,1,0,0
6996380000,6996380000,1036000,41.606704,-86.3556021,-0.69559425,32.90132,-12.292961,0.00034446313,0.00015069879,0.0,0.0049447855,0.9887304,-0.27325457,-0.30706462,-0.0007434546,-0.012204854,-0.016599584,0.105510056,-1.3780831,0.43341136,-1.2711574,0.0035601552,229.39903,12.504956,0.38557133,0.4206823,0.1518025,0.117790364,inf,inf,inf,inf,1,1,1,1,2,0,2,1,5,1,1,1,0,0
6996884000,6996884000,1036000,41.606704,-86.3556021,-0.7182783,33.242226,-12.41821,0.00034446313,0.00015069879,0.0,0.0048790225,0.42531812,-0.1474503,-0.18440688,-0.0007434546,-0.012204854,-0.016599584,-0.03626674,-0.8497253,0.087211765,-1.2770926,0.0035601552,229.39903,12.630205,0.3661375,0.4143443,0.14233796,0.114266045,inf,inf,inf,inf,1,1,1,1,2,0,2,1,5,1,1,1,0,0
6997380000,6997380000,1036000,41.606704,-86.3556021,-0.7523685,33.35204,-12.479217,0.00034446313,0.00015069879,0.0,0.02527995,0.1201103,-0.08605238,-0.11202942,-0.0007434546,-0.012204854,-0.016599584,0.37684804,-0.26128396,0.22886221,-1.278928,0.0035601552,229.39903,12.691212,0.36882502,0.41630077,0.14367284,0.11512021,inf,inf,inf,inf,1,1,1,1,2,0,2,1,5,1,1,1,0,0
6997884000,6997884000,1036000,41.606704,-86.3556021,-0.7621971,33.35646,-12.514551,0.00034446313,0.00015069879,0.0,0.051954348,0.008169088,-0.05116527,-0.069044255,-0.0007434546,-0.012204854,-0.016599584,0.08488875,-0.118587844,-0.007988947,-1.2827535,0.0035601552,229.39903,12.726546,0.37063515,0.4157006,0.14339907,0.11557669,inf,inf,inf,inf,1,1,1,1,2,0,2,1,5,1,1,1,0,0
6998380000,6998380000,1036000,41.606704,-86.3556021,-0.76754844,33.327354,-12.519918,0.00034446313,0.00015069879,0.0,0.02359434,-0.029978644,0.038965374,0.028560095,-0.0007434546,-0.012204854,-0.016599584,-0.15174581,-0.026321756,0.041694317,-1.2836382,0.0035601552,229.39903,12.731914,0.3727592,0.41766116,0.14376774,0.116478205,inf,inf,inf,inf,1,1,1,1,2,0,2,1,5,1,1,1,0,0
6998876000,6998876000,1036000,41.606704,-86.3556021,-0.7826188,33.288506,-12.501233,0.00034446313,0.00015069879,0.0,-0.003141234,-0.026971757,0.021811368,0.01576837,-0.0007434546,-0.012204854,-0.016599584,0.095698,0.11933983,-0.07752987,-1.2837371,0.0035601552,229.39903,12.713228,0.3758042,0.4167842,0.14552982,0.11722912,inf,inf,inf,inf,1,1,1,1,2,0,2,1,5,1,1,1,0,0
6999380000,6999380000,1036000,41.606704,-86.3556021,-0.78979117,33.259766,-12.49558,0.00034446313,0.00015069879,0.0,0.0058387816,0.004921609,0.0022144804,-0.0033042855,-0.0007434546,-0.012204854,-0.016599584,0.023513332,0.16755216,0.012165803,-1.2830781,0.0035601552,229.39903,12.707575,0.37785465,0.4192338,0.14632256,0.118106276,inf,inf,inf,inf,1,1,1,1,2,0,2,1,5,1,1,1,0,0
6999884000,6999884000,1036000,41.606704,-86.3556021,-0.79217106,33.252033,-12.485157,0.00034446313,0.00015069879,0.0,0.017452084,0.040360976,-0.011754316,-0.007152293,-0.0007434546,-0.012204854,-0.016599584,0.02814985,0.053922918,-0.04307373,-1.2833357,0.0035601552,229.39903,12.697152,0.36077294,0.41593137,0.13862711,0.11524554,inf,inf,inf,inf,1,1,1,1,2,0,2,1,5,1,1,1,0,0
7000380000,7000380000,1036000,41.606704,-86.3556021,-0.7868329,33.264015,-12.485063,0.00034446313,0.00015069879,0.0,0.023266545,0.058795072,-0.019363882,-0.011704504,-0.0007434546,-0.012204854,-0.016599584,0.04209518,0.02282733,-0.07616828,-1.2832115,0.0035601552,229.39903,12.697058,0.3830196,0.42055917,0.14935943,0.11946702,inf,inf,inf,inf,1,1,1,1,2,0,2,1,5,1,1,1,0,0
7000884000,7000884000,1036000,41.606704,-86.3556021,-0.7712684,33.279167,-12.480899,0.00034446313,0.00015069879,0.0,0.018056927,0.059443522,-0.024126057,-0.009449683,-0.0007434546,-0.012204854,-0.016599584,-0.026036048,-0.03516714,-0.032909274,-1.2837262,0.0035601552,229.39903,12.692894,0.36442572,0.4141329,0.1404793,0.11593345,inf,inf,inf,inf,1,1,1,1,2,0,2,1,5,1,1,1,0,0
7001380000,7001380000,1036000,41.606704,-86.3556021,-0.75316036,33.292786,-12.47769,0.00034446313,0.00015069879,0.0,0.007545435,0.054881297,-0.031441685,-0.010114363,-0.0007434546,-0.012204854,-0.016599584,0.09680095,0.04930653,-0.11018949,-1.2839143,0.0035601552,229.39903,12.689685,0.36730117,0.41618598,0.14240935,0.11681473,inf,inf,inf,inf,1,1,1,1,2,0,2,1,5,1,1,1,0,0
7001876000,7001876000,1036000,41.606704,-86.3556021,-0.7352179,33.314953,-12.482016,0.00034446313,0.00015069879,0.0,-0.0033483896,0.052983467,-0.03171369,-0.010555974,-0.0007434546,-0.012204854,-0.016599584,-0.083468795,0.050499465,0.1574754,-1.2848604,0.0035601552,229.39903,12.694011,0.36861366,0.41515505,0.14265478,0.116976395,inf,inf,inf,inf,1,1,1,1,2,0,2,1,5,1,1,1,0,0
7002380000,7002380000,1036000,41.606704,-86.3556021,-0.7186003,33.342968,-12.478316,0.00034446313,0.00015069879,0.0,-0.02179985,0.035144217,-0.03690145,-0.009554985,-0.0007434546,-0.012204854,-0.016599584,-0.04575369,-0.09576134,0.029215524,-1.2850847,0.0035601552,229.39903,12.690311,0.37154767,0.41781923,0.1441106,0.117843464,inf,inf,inf,inf,1,1,1,1,2,0,2,1,5,1,1,1,0,0
7002876000,7002876000,1036000,41.606704,-86.3556021,-0.71537167,33.3625,-12.478255,0.00034446313,0.00015069879,0.0,-0.03689606,0.015803589,-0.034803256,-0.0050467136,-0.0007434546,-0.012204854,-0.016599584,-0.0034453967,-0.115036644,-0.056766033,-1.2845587,0.0035601552,229.39903,12.69025,0.37349698,0.41687235,0.14479512,0.11808872,inf,inf,inf,inf,1,1,1,1,2,0,2,1,5,1,1,1,0,0
7003380000,7003380000,1036000,41.606704,-86.3556021,-0.7112778,33.36986,-12.47017,0.00034446313,0.00015069879,0.0,-0.03616227,-0.0034026352,-0.040982243,-0.0029893196,-0.0007434546,-0.012204854,-0.016599584,-0.0073234695,-0.06482708,-0.05417882,-1.2848986,0.0035601552,229.39903,12.682165,0.3758776,0.41941166,0.14564015,0.11876598,inf,inf,inf,inf,1,1,1,1,2,0,2,1,5,1,1,1,0,0
7003876000,7003876000,1036000,41.606704,-86.3556021,-0.70769566,33.3729,-12.474741,0.00034446313,0.00015069879,0.0,-0.040886104,-0.008859499,-0.044736713,-0.009031519,-0.0007434546,-0.012204854,-0.016599584,-0.027864715,0.0014522392,0.02507952,-1.2849455,0.0035601552,229.39903,12.686736,0.35865626,0.41553444,0.13755533,0.115502395,inf,inf,inf,inf,1,1,1,1,2,0,2,1,5,1,1,1,0,0
7004380000,7004380000,1036000,41.606704,-86.3556021,-0.71042144,33.37863,-12.479353,0.00034446313,0.00015069879,0.0,-0.04494808,-0.008478435,-0.04411876,-0.01002435,-0.0007434546,-0.012204854,-0.016599584,0.050337143,0.04675996,-0.004903476,-1.2849042,0.0035601552,229.39903,12.691348,0.381504,0.42091048,0.14823239,0.11982922,inf,inf,inf,inf,1,1,1,1,2,0,2,1,5,1,1,1,0,0
7004884000,7004884000,1036000,41.606704,-86.3556021,-0.70753664,33.384735,-12.48262,0.00034446313,0.00015069879,0.0,-0.036954492,-0.012250637,-0.039475612,-0.0067265895,-0.0007434546,-0.012204854,-0.016599584,-0.021647206,0.016934834,-0.117762074,-1.2845628,0.0035601552,229.39903,12.694615,0.36334205,0.41448742,0.13936423,0.11617566,inf,inf,inf,inf,1,1,1,1,2,0,2,1,5,1,1,1,0,0
7005380000,7005380000,1036000,41.606704,-86.3556021,-0.707432,33.384064,-12.485077,0.00034446313,0.00015069879,0.0,-0.041728094,-0.015113918,-0.0351245,-0.0036116967,-0.0007434546,-0.012204854,-0.016599584,-0.14947544,-0.04670784,-0.17141183,-1.2839706,0.0035601552,229.39903,12.697072,0.387136,0.42254782,0.1506817,0.120879,inf,inf,inf,inf,1,1,1,1,2,0,2,1,5,1,1,1,0,0
7005876000,7005876000,1036000,41.606704,-86.3556021,-0.7124188,33.38269,-12.484414,0.00034446313,0.00015069879,0.0,-0.035869256,-0.01645033,-0.028480442,0.0049063684,-0.0007434546,-0.012204854,-0.016599584,0.0040095663,-0.08665887,-0.071217366,-1.2838832,0.0035601552,229.39903,12.696409,0.36670437,0.41545537,0.14055096,0.11685447,inf,inf,inf,inf,1,1,1,1,2,0,2,1,5,1,1,1,0,0
7006380000,7006380000,1036000,41.606704,-86.3556021,-0.72030157,33.37585,-12.476711,0.00034446313,0.00015069879,0.0,-0.033074692,-0.019029332,-0.042118452,-0.001614839,-0.0007434546,-0.012204854,-0.016599584,0.38957453,0.12133742,0.18574756,-1.2838801,0.0035601552,229.39903,12.688706,0.3699008,0.41518226,0.14231671,0.11737593,inf,inf,inf,inf,1,1,1,1,2,0,2,1,5,1,1,1,0,0
7006884000,7006884000,1036000,41.606704,-86.3556021,-0.73432213,33.374405,-12.479687,0.00034446313,0.00015069879,0.0,-0.027876744,-0.013168936,-0.0430545,-0.0047151945,-0.0007434546,-0.012204854,-0.016599584,0.021531215,-0.01662882,-0.0057640183,-1.2837353,0.0035601552,229.39903,12.691682,0.37268427,0.4178463,0.14356157,0.11814472,inf,inf,inf,inf,1,1,1,1,2,0,2,1,5,1,1,1,0,0
7007380000,7007380000,1036000,41.606704,-86.3556021,-0.7388357,33.37402,-12.475801,0.00034446313,0.00015069879,0.0,-0.013131274,-0.015816417,-0.042932402,-0.0006392554,-0.0007434546,-0.012204854,-0.016599584,0.07583403,0.12187861,0.06802653,-1.283468,0.0035601552,229.39903,12.687797,0.37446195,0.41982877,0.14421226,0.11863709,inf,inf,inf,inf,1,1,1,1,2,0,2,1,5,1,1,1,0,0
7007876000,7007876000,1036000,41.606704,-86.3556021,-0.73906654,33.37145,-12.464201,0.00034446313,0.00015069879,0.0,-0.0069855414,-0.015553582,-0.057602555,-0.0048087193,-0.0007434546,-0.012204854,-0.016599584,-0.022324054,-0.0029135328,0.00076455256,-1.2840183,0.0035601552,229.39903,12.676196,0.37722847,0.4188447,0.14577991,0.118955165,inf,inf,inf,inf,1,1,1,1,2,0,2,1,5,1,1,1,0,0
7008380000,7008380000,1036000,41.606704,-86.3556021,-0.7505302,33.365883,-12.4601,0.00034446313,0.00015069879,0.0,-0.0053344974,-0.009963414,-0.060085364,-0.002806947,-0.0007434546,-0.012204854,-0.016599584,0.09531582,0.055764887,0.007275428,-1.2835984,0.0035601552,229.39903,12.672095,0.37907425,0.42131093,0.14616632,0.11947543,inf,inf,inf,inf,1,1,1,1,2,0,2,1,5,1,1,1,0,0
7008884000,7008884000,1036000,41.606704,-86.3556021,-0.7608684,33.369587,-12.447069,0.00034446313,0.00015069879,0.0,0.0025323916,-0.004820357,-0.072382204,-0.003364524,-0.0007434546,-0.012204854,-0.016599584,0.050601244,0.014249774,0.0028320886,-1.2832613,0.0035601552,229.39903,12.659064,0.36165902,0.4149397,0.13805385,0.11590117,inf,inf,inf,inf,1,1,1,1,2,0,2,1,5,1,1,1,0,0
7009380000,7009380000,1036000,41.606704,-86.3556021,-0.76605475,33.373604,-12.452687,0.00034446313,0.00015069879,0.0,0.012041606,-0.009304271,-0.07552776,-0.011591593,-0.0007434546,-0.012204854,-0.016599584,0.037410785,-0.032349896,0.030743826,-1.2833251,0.0035601552,229.39903,12.664682,0.38532147,0.42289418,0.1494895,0.12060043,inf,inf,inf,inf,1,1,1,1,2,0,2,1,5,1,1,1,0,0
7009876000,7009876000,1036000,41.606704,-86.3556021,-0.76958555,33.384556,-12.460655,0.00034446313,0.00015069879,0.0,0.019010937,-0.010450549,-0.06301417,-0.0044199675,-0.0007434546,-0.012204854,-0.016599584,-0.06519507,0.00774834,0.006174605,-1.283361,0.0035601552,229.39903,12.67265,0.36544904,0.41555977,0.13969181,0.11657702,inf,inf,inf,inf,1,1,1,1,2,0,2,1,5,1,1,1,0,0
7010380000,7010380000,1036000,41.606704,-86.3556021,-0.7708753,33.392483,-12.462751,0.00034446313,0.00015069879,0.0,0.023674106,-0.02051726,-0.061037883,-0.004523376,-0.0007434546,-0.012204854,-0.016599584,-0.079021335,-0.07762996,-0.09394164,-1.2833074,0.0035601552,229.39903,12.6747465,0.36871806,0.41809884,0.14149028,0.11744339,inf,inf,inf,inf,1,1,1,1,2,0,2,1,5,1,1,1,0,0
7010884000,7010884000,1036000,41.606704,-86.3556021,-0.7728194,33.39034,-12.476001,0.00034446313,0.00015069879,0.0,0.018420612,-0.026646778,-0.046889275,-0.0014424109,-0.0007434546,-0.012204854,-0.016599584,-0.0077772713,0.03213994,-0.17226213,-1.2830553,0.0035601552,229.39903,12.687996,0.37049925,0.41757277,0.14182775,0.11764159,inf,inf,inf,inf,1,1,1,1,2,0,2,1,5,1,1,1,0,0
7011380000,7011380000,1036000,41.606704,-86.3556021,-0.7831684,33.386814,-12.473543,0.00034446313,0.00015069879,0.0,0.021763336,-0.025080161,-0.046891168,0.0014936929,-0.0007434546,-0.012204854,-0.016599584,0.002764195,0.03476762,0.2576764,-1.2832899,0.0035601552,229.39903,12.685538,0.3726008,0.41658422,0.14287467,0.11787831,inf,inf,inf,inf,1,1,1,1,2,0,2,1,5,1,1,1,0,0
7011876000,7011876000,1036000,41.606704,-86.3556021,-0.7944905,33.382305,-12.467084,0.00034446313,0.00015069879,0.0,0.031151049,-0.024304288,-0.053369842,-0.0003276875,-0.0007434546,-0.012204854,-0.016599584,-0.017456502,-0.015525121,-0.017506134,-1.2834038,0.0035601552,229.39903,12.679079,0.37564012,0.41876984,0.14473206,0.11867987,inf,inf,inf,inf,1,1,1,1,2,0,2,1,5,1,1,1,0,0
7012380000,7012380000,1036000,41.606704,-86.3556021,-0.7971496,33.376244,-12.475819,0.00034446313,0.00015069879,0.0,0.038132254,-0.023066185,-0.05044151,-0.0045439396,-0.0007434546,-0.012204854,-0.016599584,0.07669878,0.0022396077,0.03776693,-1.2834668,0.0035601552,229.39903,12.687814,0.37762457,0.41826522,0.14525002,0.11889184,inf,inf,inf,inf,1,1,1,1,2,0,2,1,5,1,1,1,0,0
7012876000,7012876000,1036000,41.606704,-86.3556021,-0.8060825,33.37474,-12.477726,0.00034446313,0.00015069879,0.0,0.04239376,-0.015460172,-0.047676943,-0.003182329,-0.0007434546,-0.012204854,-0.016599584,0.045804083,-0.013436639,-0.034854807,-1.2838237,0.0035601552,229.39903,12.689721,0.359858,0.41433606,0.1369431,0.11553116,inf,inf,inf,inf,1,1,1,1,2,0,2,1,5,1,1,1,0,0
7013380000,7013380000,1036000,41.606704,-86.3556021,-0.79887193,33.37516,-12.479035,0.00034446313,0.00015069879,0.0,0.031544775,-0.0065321987,0.0005089572,0.038116403,-0.0007434546,-0.012204854,-0.016599584,-0.06649067,0.08573902,0.021141889,-1.283602,0.0035601552,229.39903,12.6910305,0.38265482,0.42266458,0.14733155,0.12015055,inf,inf,inf,inf,1,1,1,1,2,0,2,1,5,1,1,1,0,0
7013876000,7013876000,1036000,41.606704,-86.3556021,-0.8092619,33.38369,-12.4557905,0.00034446313,0.00015069879,0.0,0.020978631,0.00718917,-0.019542668,0.02379047,-0.0007434546,-0.012204854,-0.016599584,0.11042465,-0.07700462,-0.16724603,-1.2841202,0.0035601552,229.39903,12.667786,0.3635822,0.41547272,0.13839474,0.11624183,inf,inf,inf,inf,1,1,1,1,2,0,2,1,5,1,1,1,0,0
7014380000,7014380000,1036000,41.606704,-86.3556021,-0.78401256,33.38652,-12.44693,0.00034446313,0.00015069879,0.0,0.23262425,0.004285198,-0.05923266,-0.011553439,-0.0007434546,-0.012204854,-0.016599584,0.89114213,0.02344543,-0.10693545,-1.2852631,0.0035601552,229.39903,12.658925,0.36710936,0.41510668,0.14068708,0.11683571,inf,inf,inf,inf,1,1,1,1,2,0,2,1,5,1,1,1,0,0
7014884000,7014884000,1036000,41.606704,-86.3556021,-0.55813164,33.383205,-12.462838,0.00034446313,0.00015069879,0.0,0.8565417,0.0007004638,-0.11762957,-0.06690945,-0.0007434546,-0.012204854,-0.016599584,1.6400906,0.07885118,-0.10971638,-1.2886478,0.0035601552,229.39903,12.674833,0.369106,0.41758692,0.14186586,0.117335275,inf,inf,inf,inf,1,1,1,1,2,0,2,1,5,1,1,1,0,0
7015380000,7015380000,1036000,41.606704,-86.3556021,0.0085002715,33.369453,-12.497901,0.00034446313,0.00015069879,0.0,1.610448,-0.00037228648,-0.15557683,-0.09750146,-0.0007434546,-0.012204854,-0.016599584,1.4696196,0.06331512,-0.03473094,-1.2907037,0.0035601552,229.39903,12.709896,0.3713452,0.41655314,0.1442321,0.11732465,inf,inf,inf,inf,1,1,1,1,2,0,2,1,5,1,1,1,0,0
7015884000,7015884000,1036000,41.606704,-86.3556021,0.92679083,33.35212,-12.542684,0.00034446313,0.00015069879,0.0,2.1427877,0.016215019,-0.12849183,-0.07277574,-0.0007434546,-0.012204854,-0.016599584,0.77485037,-0.003843987,-0.022686148,-1.2887726,0.0035601552,229.39903,12.754679,0.37398764,0.41907707,0.14589365,0.11776734,inf,inf,inf,inf,1,1,1,1,2,0,2,1,5,1,1,1,0,0
7016380000,7016380000,1036000,41.606704,-86.3556021,2.0422838,33.33366,-12.569448,0.00034446313,0.00015069879,0.0,2.4154832,0.029689742,-0.074872084,-0.023010328,-0.0007434546,-0.012204854,-0.016599584,0.3273466,0.106355354,0.19277532,-1.2923911,0.0035601552,229.39903,12.781444,0.37566465,0.41800466,0.14604001,0.11770613,inf,inf,inf,inf,1,1,1,1,2,0,2,1,5,1,1,1,0,0
7016876000,7016876000,1036000,41.606704,-86.3556021,3.250269,33.31381,-12.577275,0.00034446313,0.00015069879,0.0,2.5173864,0.044878535,-0.041766174,0.0048258337,-0.0007434546,-0.012204854,-0.016599584,0.110333644,0.086332075,0.10884918,-1.2966409,0.0035601552,229.39903,12.78927,0.35851052,0.41419318,0.13725102,0.11444159,inf,inf,inf,inf,1,1,1,1,2,0,2,1,5,1,1,1,0,0
7017380000,7017380000,1036000,41.606704,-86.3556021,4.522141,33.31039,-12.581201,0.00034446313,0.00015069879,0.0,2.5532928,0.06901465,-0.012248642,0.022586301,-0.0007434546,-0.012204854,-0.016599584,-0.07823381,0.0076483116,-0.07655943,-1.306797,0.0035601552,229.39903,12.793196,0.3812639,0.42237306,0.14739345,0.11899221,inf,inf,inf,inf,1,1,1,1,2,0,2,1,5,1,1,1,0,0
7017876000,7017876000,1036000,41.606704,-86.3556021,5.779076,33.31734,-12.578751,0.00034446313,0.00015069879,0.0,2.5708761,0.07014093,-0.0017329176,0.023882903,-0.0007434546,-0.012204854,-0.016599584,0.031558733,0.022457415,-0.023717122,-1.3201562,0.0035601552,229.39903,12.790746,0.36252913,0.41523463,0.1381937,0.11521788,inf,inf,inf,inf,1,1,1,1,2,0,2,1,5,1,1,1,0,0
7018380000,7018380000,1036000,41.606704,-86.3556021,7.0698657,33.333958,-12.577311,0.00034446313,0.00015069879,0.0,2.5714648,0.07480316,0.0057375524,0.021414222,-0.0007434546,-0.012204854,-0.016599584,-0.022826662,0.038322162,-0.010922614,-1.3269926,0.0035601552,229.39903,12.789306,0.38688162,0.42069194,0.14979023,0.1197138,inf,inf,inf,inf,1,1,1,1,2,0,2,1,5,1,1,1,0,0
7018876000,7018876000,1036000,41.606704,-86.3556021,8.322419,33.351955,-12.576501,0.00034446313,0.00015069879,0.0,2.5530365,0.0633419,0.013923105,0.020451192,-0.0007434546,-0.012204854,-0.016599584,0.015952813,-0.0018639221,-0.07134123,-1.3470113,0.0035601552,229.39903,12.788496,0.36655915,0.4165827,0.13997817,0.11613324,inf,inf,inf,inf,1,1,1,1,2,0,2,1,5,1,1,1,0,0
7019380000,7019380000,1036000,41.606704,-86.3556021,9.583236,33.369102,-12.572014,0.00034446313,0.00015069879,0.0,2.5531483,0.047420308,0.0050604413,0.010435813,-0.0007434546,-0.012204854,-0.016599584,0.02588515,-0.051721912,-0.021074029,-1.3592166,0.0035601552,229.39903,12.784009,0.36970505,0.4162055,0.14202164,0.11666194,inf,inf,inf,inf,1,1,1,1,2,0,2,1,5,1,1,1,0,0
7019876000,7019876000,1036000,41.606704,-86.3556021,10.828505,33.38281,-12.578318,0.00034446313,0.00015069879,0.0,2.5530033,0.04126162,-0.00047845423,-0.0025367027,-0.0007434546,-0.012204854,-0.016599584,-0.06769858,0.034000397,0.2244021,-1.3674586,0.0035601552,229.39903,12.790313,0.37175682,0.41809022,0.14320493,0.117211774,inf,inf,inf,inf,1,1,1,1,2,0,2,1,5,1,1,1,0,0
7020380000,7020380000,1036000,41.606704,-86.3556021,12.05441,33.408558,-12.577996,0.00034446313,0.00015069879,0.0,2.377079,0.037589017,0.049257103,0.039766572,-0.0007434546,-0.012204854,-0.016599584,-0.598578,-0.04914027,0.14901899,-1.3909825,0.0035601552,229.39903,12.789991,0.37422785,0.4175429,0.1445409,0.11751201,inf,inf,inf,inf,1,1,1,1,2,0,2,1,5,1,1,1,0,0
7020884000,7020884000,1036000,41.606704,-86.3556021,13.098918,33.434204,-12.559583,0.00034446313,0.00015069879,0.0,1.7997084,0.022926537,0.08315813,0.06444154,-0.0007434546,-0.012204854,-0.016599584,-1.3936043,-0.0064757513,0.006383221,-1.4017015,0.0035601552,229.39903,12.771578,0.37777954,0.42006564,0.14774512,0.11835386,inf,inf,inf,inf,1,1,1,1,2,0,2,1,5,1,1,1,0,0
7021380000,7021380000,1036000,41.606704,-86.3556021,13.7923155,33.4566,-12.542812,0.00034446313,0.00015069879,0.0,1.042408,0.01741171,0.05992418,0.033609305,-0.0007434546,-0.012204854,-0.016599584,-1.4460715,-0.00037658698,-0.06421196,-1.4067632,0.0035601552,229.39903,12.754807,0.37892586,0.42169628,0.1499871,0.11853037,inf,inf,inf,inf,1,1,1,1,2,0,2,1,5,1,1,1,0,0
7021884000,7021884000,1036000,41.606704,-86.3556021,14.140703,33.492844,-12.545346,0.00034446313,0.00015069879,0.0,0.4611226,0.003854977,0.022303972,-0.010154819,-0.0007434546,-0.012204854,-0.016599584,-0.7780066,-0.12439125,0.079516254,-1.4296533,0.0035601552,229.39903,12.757341,0.36154732,0.41515094,0.142492,0.11484294,inf,inf,inf,inf,1,1,1,1,2,0,2,1,5,1,1,1,0,0
7022380000,7022380000,1036000,41.606704,-86.3556021,14.260553,33.513176,-12.551707,0.00034446313,0.00015069879,0.0,0.14307591,-0.029326245,0.015004935,-0.014992325,-0.0007434546,-0.012204854,-0.016599584,-0.46648723,-0.070204936,-0.040079527,-1.4443631,0.0035601552,229.39903,12.763702,0.38390657,0.42258927,0.15300354,0.11902866,inf,inf,inf,inf,1,1,1,1,2,0,2,1,5,1,1,1,0,0
7022884000,7022884000,1036000,41.606704,-86.3556021,14.249257,33.52728,-12.550065,0.00034446313,0.00015069879,0.0,0.019678617,-0.051273067,0.0061926353,-0.01337588,-0.0007434546,-0.012204854,-0.016599584,-0.05093878,-0.033997398,-0.08703774,-1.4566369,0.0035601552,229.39903,12.76206,0.3650484,0.41588172,0.14214449,0.11537014,inf,inf,inf,inf,1,1,1,1,2,0,2,1,5,1,1,1,0,0
7023380000,7023380000,1036000,41.606704,-86.3556021,14.203813,33.53425,-12.531553,0.00034446313,0.00015069879,0.0,-0.039739307,-0.023675097,0.04645154,0.041976735,-0.0007434546,-0.012204854,-0.016599584,-0.20731503,0.19541469,-0.15585223,-1.4622405,0.0035601552,229.39903,12.743548,0.3678328,0.41763243,0.14266144,0.116160035,inf,inf,inf,inf,1,1,1,1,2,0,2,1,5,1,1,1,0,0
7023884000,7023884000,1036000,41.606704,-86.3556021,14.142632,33.55194,-12.506345,0.00034446313,0.00015069879,0.0,-0.06741386,-0.0094343005,0.05779722,0.05815255,-0.0007434546,-0.012204854,-0.016599584,0.05554064,-0.16127484,0.13267243,-1.4608227,0.0035601552,229.39903,12.71834,0.3696709,0.41682234,0.14237654,0.116466515,inf,inf,inf,inf,1,1,1,1,2,0,2,1,5,1,1,1,0,0
7024380000,7024380000,1036000,41.606704,-86.3556021,14.055504,33.537483,-12.425964,0.00034446313,0.00015069879,0.0,-0.18488532,-0.20528515,0.2774539,0.27796438,-0.0007434546,-0.012204854,-0.016599584,-0.28897592,-0.7410567,0.6165801,-1.4656984,0.0035601552,229.39903,12.6379595,0.37184906,0.4185939,0.14255843,0.11717641,inf,inf,inf,inf,1,1,1,1,2,0,2,1,5,1,1,1,0,0
7024884000,7024884000,1036000,41.606704,-86.3556021,13.871881,33.319866,-12.242358,0.00034446313,0.00015069879,0.0,-0.46242404,-0.8066184,0.39530885,0.40066472,-0.0007434546,-0.012204854,-0.016599584,-0.60196537,-1.533612,0.12815271,-1.4649527,0.0035601552,229.39903,12.454353,0.37430096,0.41798162,0.14371377,0.11746618,inf,inf,inf,inf,1,1,1,1,2,0,2,1,5,1,1,1,0,0
7025380000,7025380000,1036000,41.606704,-86.3556021,13.547799,32.76679,-12.011728,0.00034446313,0.00015069879,0.0,-0.6975454,-1.5121945,0.45830965,0.47940162,-0.0007434546,-0.012204854,-0.016599584,-0.4198653,-1.2428229,0.19797955,-1.4722533,0.0035601552,229.39903,12.223723,0.37586167,0.41979545,0.14529361,0.11771662,inf,inf,inf,inf,1,1,1,1,2,0,2,1,5,1,1,1,0,0
7025876000,7025876000,1036000,41.606704,-86.3556021,13.130905,31.902758,-11.718247,0.00034446313,0.00015069879,0.0,-0.82769114,-2.0230355,0.54512435,0.5913165,-0.0007434546,-0.012204854,-0.016599584,-0.20290582,-0.7766775,0.14470977,-1.4812872,0.0035601552,229.39903,11.930243,0.3585943,0.41299778,0.13759105,0.11399916,inf,inf,inf,inf,1,1,1,1,2,0,2,1,5,1,1,1,0,0
7026380000,7026380000,1036000,41.606704,-86.3556021,12.670252,30.813337,-11.386245,0.00034446313,0.00015069879,0.0,-0.8912282,-2.3246486,0.6219722,0.6758919,-0.0007434546,-0.012204854,-0.016599584,-0.0074380627,-0.40572837,0.12190446,-1.4833881,0.0035601552,229.39903,11.59824,0.38119152,0.42096838,0.1482037,0.11838311,inf,inf,inf,inf,1,1,1,1,2,0,2,1,5,1,1,1,0,0
7026884000,7026884000,1036000,41.606704,-86.3556021,12.173013,29.60672,-11.013771,0.00034446313,0.00015069879,0.0,-0.9305265,-2.4708889,0.6774526,0.7414802,-0.0007434546,-0.012204854,-0.016599584,0.017559372,-0.09165099,0.021270411,-1.48884,0.0035601552,229.39903,11.225766,0.3631287,0.41730398,0.13919586,0.11510341,inf,inf,inf,inf,1,1,1,1,2,0,2,1,5,1,1,1,0,0
7027380000,7027380000,1036000,41.606704,-86.3556021,11.6768675,28.3642,-10.62255,0.00034446313,0.00015069879,0.0,-0.9401858,-2.5165367,0.6897413,0.764706,-0.0007434546,-0.012204854,-0.016599584,0.047291037,-0.10947619,0.028192932,-1.476922,0.0035601552,229.39903,10.834545,0.38669652,0.4219571,0.15053286,0.11938046,inf,inf,inf,inf,1,1,1,1,2,0,2,1,5,1,1,1,0,0
7027876000,7027876000,1036000,41.606704,-86.3556021,11.182981,27.093374,-10.228839,0.00034446313,0.00015069879,0.0,-0.95365894,-2.5421364,0.70298743,0.7840733,-0.0007434546,-0.012204854,-0.016599584,0.013902343,-0.0023349074,-0.08448685,-1.4776914,0.0035601552,229.39903,10.440834,0.3664242,0.41472146,0.14064904,0.115506195,inf,inf,inf,inf,1,1,1,1,2,0,2,1,5,1,1,1,0,0
7028380000,7028380000,1036000,41.606704,-86.3556021,10.680037,25.803467,-9.823555,0.00034446313,0.00015069879,0.0,-0.97522783,-2.5443428,0.6931523,0.78130186,-0.0007434546,-0.012204854,-0.016599584,-0.07253663,-0.023681695,-0.13772403,-1.4683214,0.0035601552,229.39903,10.03555,0.3695902,0.4170814,0.14284372,0.116415896,inf,inf,inf,inf,1,1,1,1,2,0,2,1,5,1,1,1,0,0
7028876000,7028876000,1036000,41.606704,-86.3556021,10.182568,24.532616,-9.430319,0.00034446313,0.00015069879,0.0,-0.98802125,-2.5349138,0.6832505,0.77462703,-0.0007434546,-0.012204854,-0.016599584,-0.026225291,-0.008803671,-0.07387443,-1.448706,0.0035601552,229.39903,9.642314,0.37166557,0.41881815,0.14422031,0.117030874,inf,inf,inf,inf,1,1,1,1,2,0,2,1,5,1,1,1,0,0
7029380000,7029380000,1036000,41.606704,-86.3556021,9.678642,23.249554,-9.023956,0.00034446313,0.00015069879,0.0,-1.0035906,-2.5274782,0.67281944,0.77632505,-0.0007434546,-0.012204854,-0.016599584,-0.13601878,0.0023888936,-0.16879761,-1.4474828,0.0035601552,229.39903,9.235951,0.3741715,0.41822755,0.14570685,0.11740341,inf,inf,inf,inf,1,1,1,1,2,0,2,1,5,1,1,1,0,0
7029884000,7029884000,1036000,41.606704,-86.3556021,9.174843,21.970743,-8.628733,0.00034446313,0.00015069879,0.0,-1.019568,-2.5171652,0.6472076,0.75542134,-0.0007434546,-0.012204854,-0.016599584,0.00912841,0.03891889,-0.102080464,-1.4328288,0.0035601552,229.39903,8.840728,0.37778217,0.41783398,0.14809948,0.117958054,inf,inf,inf,inf,1,1,1,1,2,0,2,1,5,1,1,1,0,0
7030380000,7030380000,1036000,41.606704,-86.3556021,8.677471,20.716068,-8.2484455,0.00034446313,0.00015069879,0.0,-1.0223682,-2.501565,0.6423426,0.753564,-0.0007434546,-0.012204854,-0.016599584,-0.02368398,0.051126562,-0.12017699,-1.4150442,0.0035601552,229.39903,8.460441,0.3789521,0.41953838,0.14839731,0.118261375,inf,inf,inf,inf,1,1,1,1,2,0,2,1,5,1,1,1,0,0
7030876000,7030876000,1036000,41.606704,-86.3556021,8.184867,19.464643,-7.867811,0.00034446313,0.00015069879,0.0,-1.0345733,-2.4942439,0.6355414,0.7519206,-0.0007434546,-0.012204854,-0.016599584,-0.10046892,-0.09161715,-0.14214781,-1.4116141,0.0035601552,229.39903,8.079806,0.3609054,0.41274393,0.13977478,0.11455253,inf,inf,inf,inf,1,1,1,1,2,0,2,1,5,1,1,1,0,0
7031380000,7031380000,1036000,41.606704,-86.3556021,7.671465,18.199005,-7.4957876,0.00034446313,0.00015069879,0.0,-1.0570309,-2.490526,0.6235493,0.7334736,-0.0007434546,-0.012204854,-0.016599584,-0.04804449,0.093600005,-0.06957079,-1.3929,0.0035601552,229.39903,7.7077823,0.385359,0.421209,0.15203768,0.11926162,inf,inf,inf,inf,1,1,1,1,2,0,2,1,5,1,1,1,0,0
7031876000,7031876000,1036000,41.606704,-86.3556021,7.1574664,16.96358,-7.135236,0.00034446313,0.00015069879,0.0,-1.0536772,-2.4758346,0.63567096,0.7393718,-0.0007434546,-0.012204854,-0.016599584,-0.07997293,0.0879738,-0.10244554,-1.3766897,0.0035601552,229.39903,7.3472304,0.36532974,0.4141741,0.14177848,0.115234286,inf,inf,inf,inf,1,1,1,1,2,0,2,1,5,1,1,1,0,0
7032380000,7032380000,1036000,41.606704,-86.3556021,6.636847,15.704103,-6.762647,0.00034446313,0.00015069879,0.0,-1.0545884,-2.4865158,0.6367345,0.7380354,-0.0007434546,-0.012204854,-0.016599584,-0.07410778,-0.067342386,-0.084505476,-1.3709466,0.0035601552,229.39903,6.974642,0.36867002,0.41689065,0.14363271,0.11597131,inf,inf,inf,inf,1,1,1,1,2,0,2,1,5,1,1,1,0,0
7032876000,7032876000,1036000,41.606704,-86.3556021,6.122582,14.464288,-6.4044676,0.00034446313,0.00015069879,0.0,-1.0500404,-2.48369,0.6539946,0.74677736,-0.0007434546,-0.012204854,-0.016599584,0.015657397,-0.030940972,-0.23316316,-1.3507655,0.0035601552,229.39903,6.616462,0.3697515,0.41579646,0.14353374,0.11579263,inf,inf,inf,inf,1,1,1,1,2,0,2,1,5,1,1,1,0,0
7033380000,7033380000,1036000,41.606704,-86.3556021,5.596011,13.21056,-6.033146,0.00034446313,0.00015069879,0.0,-1.0472088,-2.4810693,0.6531378,0.7419651,-0.0007434546,-0.012204854,-0.016599584,-0.04353647,-0.022485048,-0.089807495,-1.3359432,0.0035601552,229.39903,6.2451406,0.3726212,0.4182792,0.1449531,0.116305016,inf,inf,inf,inf,1,1,1,1,2,0,2,1,5,1,1,1,0,0
7033884000,7033884000,1036000,41.606704,-86.3556021,5.0675664,11.953542,-5.665442,0.00034446313,0.00015069879,0.0,-1.034371,-2.4827702,0.6577546,0.74093753,-0.0007434546,-0.012204854,-0.016599584,-0.014556385,-0.017192073,-0.160154,-1.3227665,0.0035601552,229.39903,5.8774366,0.37646255,0.41782397,0.14710468,0.11661123,inf,inf,inf,inf,1,1,1,1,2,0,2,1,5,1,1,1,0,0
7034380000,7034380000,1036000,41.606704,-86.3556021,4.5454946,10.715014,-5.3000007,0.00034446313,0.00015069879,0.0,-1.0337553,-2.4905584,0.66816217,0.74973893,-0.0007434546,-0.012204854,-0.016599584,0.029831791,-0.013973145,-0.1288597,-1.3003663,0.0035601552,229.39903,5.5119953,0.37776598,0.41944873,0.14716212,0.116704404,inf,inf,inf,inf,1,1,1,1,2,0,2,1,5,1,1,1,0,0
7034884000,7034884000,1036000,41.606704,-86.3556021,4.002471,9.4415245,-4.9158916,0.00034446313,0.00015069879,0.0,-1.030957,-2.5005498,0.6676663,0.7550124,-0.0007434546,-0.012204854,-0.016599584,-0.11161351,-0.025642384,-0.15985319,-1.2910268,0.0035601552,229.39903,5.1278863,0.36058822,0.41599363,0.13889273,0.11343689,inf,inf,inf,inf,1,1,1,1,2,0,2,1,5,1,1,1,0,0
7035380000,7035380000,1036000,41.606704,-86.3556021,3.4757936,8.187078,-4.5474863,0.00034446313,0.00015069879,0.0,-1.0080016,-2.4791286,0.66107476,0.7451838,-0.0007434546,-0.012204854,-0.016599584,0.077475175,0.016768364,-0.124682724,-1.2737714,0.0035601552,229.39903,4.759481,0.38290375,0.42041758,0.14944391,0.11701333,inf,inf,inf,inf,1,1,1,1,2,0,2,1,5,1,1,1,0,0
7035876000,7035876000,1036000,41.606704,-86.3556021,2.9632587,6.935217,-4.176738,0.00034446313,0.00015069879,0.0,-0.99658215,-2.475352,0.66458863,0.7485996,-0.0007434546,-0.012204854,-0.016599584,0.020848854,0.07641276,-0.13846071,-1.2559613,0.0035601552,229.39903,4.3887324,0.36371702,0.41617647,0.14005949,0.113460585,inf,inf,inf,inf,1,1,1,1,2,0,2,1,5,1,1,1,0,0
7036380000,7036380000,1036000,41.606704,-86.3556021,2.4421568,5.665092,-3.8036416,0.00034446313,0.00015069879,0.0,-1.0003462,-2.4749289,0.6668213,0.7473896,-0.0007434546,-0.012204854,-0.016599584,0.14156562,0.029069202,-0.044642076,-1.2495537,0.0035601552,229.39903,4.0156364,0.36728954,0.4154848,0.14218049,0.11373844,inf,inf,inf,inf,1,1,1,1,2,0,2,1,5,1,1,1,0,0
7036876000,7036876000,1036000,41.606704,-86.3556021,1.9282362,4.4163036,-3.440135,0.00034446313,0.00015069879,0.0,-1.0070482,-2.4837213,0.67832714,0.7521768,-0.0007434546,-0.012204854,-0.016599584,-0.019251334,0.025924662,-0.118614234,-1.2296166,0.0035601552,229.39903,3.6521297,0.36854476,0.41710147,0.14223452,0.11389333,inf,inf,inf,inf,1,1,1,1,2,0,2,1,5,1,1,1,0,0
7037380000,7037380000,1036000,41.606704,-86.3556021,1.4100409,3.1479356,-3.0679677,0.00034446313,0.00015069879,0.0,-0.9953436,-2.4742374,0.6799586,0.74859875,-0.0007434546,-0.012204854,-0.016599584,-0.02497004,-0.017273797,-0.11102768,-1.2058679,0.0035601552,229.39903,3.2799623,0.37148374,0.41648862,0.14371581,0.11408137,inf,inf,inf,inf,1,1,1,1,2,0,2,1,5,1,1,1,0,0
7037884000,7037884000,1036000,41.606704,-86.3556021,0.90058064,1.8971639,-2.702436,0.00034446313,0.00015069879,0.0,-0.9984925,-2.4428582,0.6996865,0.7570918,-0.0007434546,-0.012204854,-0.016599584,-0.0643509,0.15898813,-0.046579227,-1.1960828,0.0035601552,229.39903,2.9144306,0.3740852,0.41879696,0.1447259,0.11454257,inf,inf,inf,inf,1,1,1,1,2,0,2,1,5,1,1,1,0,0
7038380000,7038380000,1036000,41.606704,-86.3556021,0.39651045,0.71090806,-2.3336158,0.00034446313,0.00015069879,0.0,-0.99131733,-2.2244842,0.76904374,0.81134176,-0.0007434546,-0.012204854,-0.016599584,0.038014174,1.0446619,1.5260873,-1.1833874,0.0035601552,229.39903,2.5456104,0.37575293,0.41741452,0.14526801,0.11444525,inf,inf,inf,inf,1,1,1,1,2,0,2,1,5,1,1,1,0,0
7038884000,7038884000,1036000,41.606704,-86.3556021,-0.08241953,-0.29684982,-1.9415947,0.00034446313,0.00015069879,0.0,-0.83870274,-1.5981724,0.6643254,0.7024811,-0.0007434546,-0.012204854,-0.016599584,0.53689516,1.480305,-0.6887596,-1.1575062,0.0035601552,229.39903,2.1535895,0.3592154,0.41421682,0.13850065,0.11159012,inf,inf,inf,inf,1,1,1,1,2,0,2,1,5,1,1,1,0,0
7039380000,7039380000,1036000,41.606704,-86.3556021,-0.42955554,-0.9288554,-1.6818271,0.00034446313,0.00015069879,0.0,-0.53128934,-0.8483606,0.3300874,0.36524707,-0.0007434546,-0.012204854,-0.016599584,0.6086001,1.374093,-0.65995944,-1.1406579,0.0035601552,229.39903,1.8938217,0.38153473,0.41845277,0.15158789,0.115250684,inf,inf,inf,inf,1,1,1,1,2,0,2,1,5,1,1,1,0,0
7039876000,7039876000,1036000,41.606704,-86.3556021,-0.61497575,-1.2398468,-1.5694805,0.00034446313,0.00015069879,0.0,-0.24327491,-0.28586003,0.1098835,0.14009422,-0.0007434546,-0.012204854,-0.016599584,0.4461012,0.992414,-0.37231672,-1.1187907,0.0035601552,229.39903,1.7814752,0.36253873,0.41446903,0.14288995,0.11221422,inf,inf,inf,inf,1,1,1,1,2,0,2,1,5,1,1,1,0,0
7040380000,7040380000,1036000,41.606704,-86.3556021,-0.67273283,-1.31732,-1.536794,0.00034446313,0.00015069879,0.0,-0.059574664,0.028832855,0.019623894,0.04231744,-0.0007434546,-0.012204854,-0.016599584,0.23310237,0.3666509,-0.090187475,-1.0941898,0.0035601552,229.39903,1.7487886,0.3874285,0.41950583,0.15499613,0.11660513,inf,inf,inf,inf,1,1,1,1,2,0,2,1,5,1,1,1,0,0
7040884000,7040884000,1036000,41.606704,-86.3556021,-0.6576001,-1.28317,-1.5440928,0.00034446313,0.00015069879,0.0,0.010874937,0.12847611,0.012556908,0.016689586,-0.0007434546,-0.012204854,-0.016599584,-0.055306584,0.06343824,-0.08876069,-1.0952904,0.0035601552,229.39903,1.7560874,0.36749378,0.41595998,0.14315209,0.11388856,inf,inf,inf,inf,1,1,1,1,2,0,2,1,5,1,1,1,0,0
7041380000,7041380000,1036000,41.606704,-86.3556021,-0.62517303,-1.2229861,-1.486359,0.00034446313,0.00015069879,0.0,0.029635603,0.14372258,0.523188,0.50530773,-0.0007434546,-0.012204854,-0.016599584,-0.08310138,-0.08229727,2.2890267,-1.0978723,0.0035601552,229.39903,1.6983536,0.37001637,0.41482148,0.14224127,0.1147151,inf,inf,inf,inf,1,1,1,1,2,0,2,1,5,1,1,1,0,0
7041884000,7041884000,1036000,41.606704,-86.3556021,-0.59875906,-1.1767337,-1.1285285,0.00034446313,0.00015069879,0.0,-0.0014327392,0.062975846,0.7585837,0.7234319,-0.0007434546,-0.012204854,-0.016599584,-0.17560814,-0.13983646,-0.6729672,-1.097331,0.0035601552,229.39903,1.3405231,0.37265882,0.4172766,0.14161271,0.11598854,inf,inf,inf,inf,1,1,1,1,2,0,2,1,5,1,1,1,0,0
7042380000,7042380000,1036000,41.606704,-86.3556021,-0.59034944,-1.1578083,-0.8137818,0.00034446313,0.00015069879,0.0,-0.025322895,0.01827315,0.6892557,0.643874,-0.0007434546,-0.012204854,-0.016599584,-0.060957525,-0.05081369,0.15570961,-1.09549,0.0035601552,229.39903,1.0257765,0.3743885,0.41622502,0.14290899,0.11662049,inf,inf,inf,inf,1,1,1,1,2,0,2,1,5,1,1,1,0,0
7042884000,7042884000,1036000,41.606704,-86.3556021,-0.59364086,-1.1604118,-0.50408226,0.00034446313,0.00015069879,0.0,-0.035624433,-0.03123974,0.71420604,0.6572175,-0.0007434546,-0.012204854,-0.016599584,-0.028901236,-0.0830485,0.09360157,-1.0945328,0.0035601552,229.39903,0.71607697,0.37780437,0.4188583,0.14501297,0.117889084,inf,inf,inf,inf,1,1,1,1,2,0,2,1,5,1,1,1,0,0
7043380000,7043380000,1036000,41.606704,-86.3556021,-0.59985745,-1.1818529,-0.1785908,0.00034446313,0.00015069879,0.0,-0.03090117,-0.050349962,0.7134678,0.65835696,-0.0007434546,-0.012204854,-0.016599584,-0.021658551,-0.073788896,0.041912246,-1.0940701,0.0035601552,229.39903,0.39058548,0.37883934,0.42062703,0.14545691,0.11851003,inf,inf,inf,inf,1,1,1,1,2,0,2,1,5,1,1,1,0,0
7043884000,7043884000,1036000,41.606704,-86.3556021,-0.60323954,-1.2061808,0.14542443,0.00034446313,0.00015069879,0.0,-0.0339411,-0.056952626,0.7146459,0.6547749,-0.0007434546,-0.012204854,-0.016599584,0.015279028,-0.0071959193,0.0690724,-1.0942866,0.0035601552,229.39903,0.1,0.3615138,0.4143092,0.13778515,0.11522307,inf,inf,inf,inf,1,1,1,1,2,0,2,1,5,1,1,1,0,0
7044380000,7044380000,1036000,41.606704,-86.3556021,-0.6174669,-1.226928,0.28359422,0.00034446313,0.00015069879,0.0,-0.025169421,-0.00509863,0.1278374,0.12702726,-0.0007434546,-0.012204854,-0.016599584,0.005552347,-0.09550015,0.02200243,-1.0965387,0.0035601552,229.39903,0.109374374,0.38508826,0.4216383,0.15201241,0.11358925,inf,inf,inf,inf,1,1,1,1,2,0,2,1,5,1,1,1,0,0
7044876000,7044876000,1036000,41.606704,-86.3556021,-0.62130576,-1.2379428,0.31585073,0.00034446313,0.00015069879,0.0,-0.025048487,-0.006844979,0.13242441,0.101138845,-0.0007434546,-0.012204854,-0.016599584,0.10623817,0.13749602,0.1936787,-1.095323,0.0035601552,229.39903,0.1,0.36523008,0.4143961,0.14385395,0.10374172,inf,inf,inf,inf,1,1,1,1,2,0,2,1,5,1,1,1,0,0
7045380000,7045380000,1036000,41.606704,-86.3556021,-0.61980224,-1.2421365,0.31156674,0.00034446313,0.00015069879,0.0,-0.015979547,-0.010216882,0.12888628,0.05458018,-0.0007434546,-0.012204854,-0.016599584,-0.056477137,-0.03183886,0.0493144,-1.095109,0.0035601552,229.39903,0.1,0.36856115,0.41288075,0.14962856,0.100212485,inf,inf,inf,inf,1,1,1,1,2,0,2,1,5,1,1,1,0,0
7045884000,7045884000,1036000,41.606704,-86.3556021,-0.6200291,-1.2433017,0.3214446,0.00034446313,0.00015069879,0.0,-0.0043547056,-0.010947848,0.14014171,0.051660236,-0.0007434546,-0.012204854,-0.016599584,-0.19879498,0.0652974,0.86193705,-1.0952538,0.0035601552,229.39903,0.1,0.3705225,0.41382888,0.15346229,0.0991087,inf,inf,inf,inf,1,1,1,1,2,0,2,1,5,1,1,1,0,0
7046380000,7046380000,1036000,41.606704,-86.3556021,-0.6158287,-1.242312,0.3209242,0.00034446313,0.00015069879,0.0,-0.00048096248,-0.011353788,0.12860249,0.024596725,-0.0007434546,-0.012204854,-0.016599584,0.02888583,0.050118938,0.055020608,-1.0951242,0.0035601552,229.39903,0.1,0.37284878,0.41405472,0.1570915,0.099715866,inf,inf,inf,inf,1,1,1,1,2,0,2,1,5,0,1,1,1,0
7046884000,7046884000,1036000,41.606704,-86.3556021,-0.6125887,-1.2398002,0.20767312,0.00034446313,0.00015069879,0.0,0.0042467644,-0.00715808,0.0790285,-0.13880824,-0.0007434546,-0.012204854,-0.016599584,0.03210169,0.10092779,-0.09144383,-1.095161,0.0035601552,229.39903,0.1,0.30205932,0.32125297,0.01439789,0.01055911,inf,inf,inf,inf,1,1,1,1,2,0,2,1,5,0,1,1,1,0
7047380000,7047380000,1036000,41.606704,-86.3556021,-0.6085224,-1.2353283,-0.0031214042,0.00034446313,0.00015069879,0.0,0.0042700106,0.0005777765,0.0023717848,-0.28239563,-0.0007434546,-0.012204854,-0.016599584,-0.03617196,0.040600322,-0.60371685,-1.095131,0.0035601552,229.39903,0.110208526,0.2836954,0.3074819,0.019884855,0.014067793,inf,inf,inf,inf,1,1,1,1,2,0,2,1,5,0,1,1,1,0
7047884000,7047884000,1036000,41.606704,-86.3556021,-0.6040385,-1.2294648,-0.019722799,0.00034446313,0.00015069879,0.0,0.006559006,0.0055392855,-0.0059994753,-0.17529674,-0.0007434546,-0.012204854,-0.016599584,-0.05755474,-0.016509634,0.01163495,-1.0951152,0.0035601552,229.39903,0.14694554,0.26482478,0.2949852,0.010765974,0.0076423404,inf,inf,inf,inf,1,1,1,1,2,0,2,1,5,0,1,1,1,0
7048380000,7048380000,1036000,41.606704,-86.3556021,-0.596324,-1.2256718,-0.0020701007,0.00034446313,0.00015069879,0.0,0.00829247,0.0017951479,-0.008251577,-0.08953797,-0.0007434546,-0.012204854,-0.016599584,-0.008976852,-0.023864076,-0.019986246,-1.0948621,0.0035601552,229.39903,0.14025661,0.25920495,0.2862459,0.017057084,0.012203088,inf,inf,inf,inf,1,1,1,1,2,0,2,1,5,0,1,1,1,0
7048876000,7048876000,1036000,41.606704,-86.3556021,-0.5944141,-1.2265387,0.017355837,0.00034446313,0.00015069879,0.0,-0.0011033431,0.00084967044,-0.0061077587,-0.038561616,-0.0007434546,-0.012204854,-0.016599584,-0.061005298,0.009546986,-0.76657254,-1.0946833,0.0035601552,229.39903,0.1318731,0.24633355,0.27758053,0.004214385,0.0029834523,inf,inf,inf,inf,1,1,1,1,2,0,2,1,5,0,1,1,1,0
