timestamp,timestamp_sample,ref_timestamp,ref_lat,ref_lon,x,y,z,delta_xy[0],delta_xy[1],delta_z,vx,vy,vz,z_deriv,delta_vxy[0],delta_vxy[1],delta_vz,ax,ay,az,heading,delta_heading,ref_alt,dist_bottom,eph,epv,evh,evv,vxy_max,vz_max,hagl_min,hagl_max,xy_valid,z_valid,v_xy_valid,v_z_valid,xy_reset_counter,z_reset_counter,vxy_reset_counter,vz_reset_counter,heading_reset_counter,heading_good_for_control,xy_global,z_global,dist_bottom_valid,dist_bottom_sensor_bitfield
6970976000,6970976000,1032000,41.606704,-86.3556021,-0.6448932,-1.3867681,0.1126796,0.0003608431,0.00019367777,0.0,0.0016958148,-0.001256833,0.003210392,0.0025011813,-0.0005769825,-0.01214426,-0.016767275,0.09280516,0.10867456,-0.022438416,-1.0531324,0.01023155,229.39902,0.1,0.085147545,0.102737404,0.009056741,0.006442388,inf,inf,inf,inf,1,1,1,1,2,0,2,1,4,0,1,1,1,0
6970984000,6970984000,1032000,41.606704,-86.3556021,-0.644895,-1.3867768,0.11266918,0.0003608431,0.00019367777,0.0,0.0016728749,-0.0013870222,0.0034811147,0.0027375026,-0.0005769825,-0.01214426,-0.016767275,-0.0112952115,-0.052338306,0.09146791,-1.0531324,0.01023155,229.39902,0.1,0.085147716,0.10273749,0.009918597,0.0070643565,inf,inf,inf,inf,1,1,1,1,2,0,2,1,4,0,1,1,1,0
6970992000,6970992000,1032000,41.606704,-86.3556021,-0.64489686,-1.3867896,0.11265975,0.0003608431,0.00019367777,0.0,0.0017632735,-0.0021788846,0.0033922552,0.0026153317,-0.0005769825,-0.01214426,-0.016767275,0.026398523,-0.094301835,-0.01092727,-1.0531262,0.01023155,229.39902,0.1,0.08514795,0.10273759,0.01071904,0.007642372,inf,inf,inf,inf,1,1,1,1,2,0,2,1,4,0,1,1,1,0
6971000000,6971000000,1032000,41.606704,-86.3556021,-0.644897,-1.3868057,0.11264756,0.0003608431,0.00019367777,0.0,0.0019937644,-0.002148943,0.0030268554,0.00221769,-0.0005769825,-0.01214426,-0.016767275,0.023908641,0.03783864,-0.023671487,-1.053153,0.01023155,229.39902,0.1,0.08514826,0.102737725,0.011468287,0.008185745,inf,inf,inf,inf,1,1,1,1,2,0,2,1,4,0,1,1,1,0
6971008000,6971008000,1032000,41.606704,-86.3556021,-0.6448969,-1.3868212,0.11263755,0.0003608431,0.00019367777,0.0,0.0017079778,-0.0022285974,0.0047175926,0.0038748793,-0.0005769825,-0.01214426,-0.016767275,-0.06499791,-0.017252654,0.24547048,-1.0531425,0.01023155,229.39902,0.1,0.08514866,0.10269367,0.012176291,0.008700977,inf,inf,inf,inf,1,1,1,1,2,0,2,1,4,0,1,1,1,0
6971016000,6971016000,1032000,41.606704,-86.3556021,-0.6449021,-1.3868384,0.11262474,0.0003608431,0.00019367777,0.0,0.00086676,-0.0027092036,0.0023009945,0.0014258912,-0.0005769825,-0.01214426,-0.016767275,-0.080036625,-0.08046761,-0.30669108,-1.053151,0.01023155,229.39902,0.1,0.08514917,0.10269389,0.012850253,0.009192798,inf,inf,inf,inf,1,1,1,1,2,0,2,1,4,0,1,1,1,0
6971024000,6971024000,1032000,41.606704,-86.3556021,-0.6449082,-1.3868593,0.112599574,0.0003608431,0.00019367777,0.0,0.0014634226,-0.0029206309,0.0018368798,0.0009305676,-0.0005769825,-0.01214426,-0.016767275,0.09998222,0.013517142,-0.03778661,-1.0531437,0.01023155,229.39902,0.1,0.085149795,0.10269416,0.013495352,0.009664783,inf,inf,inf,inf,1,1,1,1,2,0,2,1,4,0,1,1,1,0
6971032000,6971032000,1032000,41.606704,-86.3556021,-0.64491016,-1.3868804,0.11257453,0.0003608431,0.00019367777,0.0,0.0016351456,-0.0029543014,0.0026061055,0.0016697443,-0.0005769825,-0.01214426,-0.016767275,-0.0072908206,-0.021435421,0.16163841,-1.0531788,0.01023155,229.39902,0.1,0.08499662,0.1026945,0.014107586,0.010117152,inf,inf,inf,inf,1,1,1,1,2,0,2,1,4,0,1,1,1,0
6971040000,6971040000,1032000,41.606704,-86.3556021,-0.6449139,-1.3869025,0.11255432,0.0003608431,0.00019367777,0.0,0.001106104,-0.0030911723,0.0028077015,0.0018424232,-0.0005769825,-0.01214426,-0.016767275,-0.06657025,0.0074923825,0.012840081,-1.0531768,0.01023155,229.39902,0.1,0.08499752,0.10269489,0.014704775,0.0105572995,inf,inf,inf,inf,1,1,1,1,2,0,2,1,4,0,1,1,1,0
6971048000,6971048000,1032000,41.606704,-86.3556021,-0.64492095,-1.3869243,0.11254185,0.0003608431,0.00019367777,0.0,0.0008070186,-0.003104209,0.004764217,0.00377113,-0.0005769825,-0.01214426,-0.016767275,-0.034810416,-0.01764155,0.27057707,-1.0531375,0.01023155,229.39902,0.1,0.08499858,0.10269535,0.015286303,0.0109843705,inf,inf,inf,inf,1,1,1,1,2,0,2,1,4,0,1,1,1,0
6971056000,6971056000,1032000,41.606704,-86.3556021,-0.6449294,-1.386948,0.11252763,0.0003608431,0.00019367777,0.0,0.0008775726,-0.003497878,0.0022571925,0.001237382,-0.0005769825,-0.01214426,-0.016767275,0.049405344,-0.034567595,-0.32791406,-1.0531452,0.01023155,229.39902,0.1,0.0849998,0.10269589,0.015848912,0.011399825,inf,inf,inf,inf,1,1,1,1,2,0,2,1,4,0,1,1,1,0
6971064000,6971064000,1032000,41.606704,-86.3556021,-0.6449351,-1.3869729,0.112505935,0.0003608431,0.00019367777,0.0,0.0011752675,-0.0035081643,0.0025114205,0.001468692,-0.0005769825,-0.01214426,-0.016767275,-0.0010390171,0.003006863,0.0858418,-1.0531535,0.01023155,229.39902,0.1,0.085001215,0.10265233,0.016395604,0.0118049,inf,inf,inf,inf,1,1,1,1,2,0,2,1,4,0,1,1,1,0
6971072000,6971072000,1032000,41.606704,-86.3556021,-0.6449415,-1.3869987,0.11248571,0.0003608431,0.00019367777,0.0,0.0008037383,-0.0038148034,0.002444548,0.0013798429,-0.0005769825,-0.01214426,-0.016767275,-0.04327166,-0.051179335,-0.010266031,-1.0531505,0.01023155,229.39902,0.1,0.08500283,0.10265304,0.016928755,0.012200631,inf,inf,inf,inf,1,1,1,1,2,0,2,1,4,0,1,1,1,0
6971080000,6971080000,1032000,41.606704,-86.3556021,-0.64495116,-1.3870273,0.11247265,0.0003608431,0.00019367777,0.0,0.0003523927,-0.00419011,0.0045424965,0.0034567358,-0.0005769825,-0.01214426,-0.016767275,-0.053737458,-0.033352524,0.31154317,-1.0531533,0.01023155,229.39902,0.1,0.08500465,0.10265384,0.017449558,0.012587889,inf,inf,inf,inf,1,1,1,1,2,0,2,1,4,0,1,1,1,0
6971088000,6971088000,1032000,41.606704,-86.3556021,-0.64496255,-1.3870584,0.11245995,0.0003608431,0.00019367777,0.0,0.00045188877,-0.0044701253,0.0021882893,0.0010823742,-0.0005769825,-0.01214426,-0.016767275,0.0419704,-0.017184656,-0.33533764,-1.0531746,0.01023155,229.39902,0.1,0.08500671,0.10265474,0.017957151,0.01296744,inf,inf,inf,inf,1,1,1,1,2,0,2,1,4,0,1,1,1,0
6971096000,6971096000,1032000,41.606704,-86.3556021,-0.6449709,-1.387089,0.11243702,0.0003608431,0.00019367777,0.0,0.00094927824,-0.0042441143,0.0024108593,0.001285672,-0.0005769825,-0.01214426,-0.016767275,0.05488098,0.022437,0.09146325,-1.0531805,0.01023155,229.39902,0.1,0.085009,0.102655746,0.018457823,0.013339943,inf,inf,inf,inf,1,1,1,1,2,0,2,1,4,0,1,1,1,0
6971104000,6971104000,1032000,41.606704,-86.3556021,-0.6449779,-1.387119,0.112417735,0.0003608431,0.00019367777,0.0,0.00073317875,-0.0043311245,0.0028916367,0.0017480394,-0.0005769825,-0.01214426,-0.016767275,-0.0381808,-0.008700624,0.07170432,-1.0531682,0.01023155,229.39902,0.1,0.08501155,0.10265687,0.01894718,0.013705968,inf,inf,inf,inf,1,1,1,1,2,0,2,1,4,0,1,1,1,0
6971112000,6971112000,1032000,41.606704,-86.3556021,-0.6449857,-1.3871505,0.11240244,0.0003608431,0.00019367777,0.0,0.0007958891,-0.0047037057,0.0033461503,0.0021849866,-0.0005769825,-0.01214426,-0.016767275,0.006939095,-0.053241007,0.057932854,-1.0531154,0.01023155,229.39902,0.1,0.08501437,0.10265812,0.0194265,0.014066021,inf,inf,inf,inf,1,1,1,1,2,0,2,1,4,0,1,1,1,0
6971120000,6971120000,1032000,41.606704,-86.3556021,-0.64499474,-1.3871844,0.112391114,0.0003608431,0.00019367777,0.0,0.00037562067,-0.004918151,0.004444051,0.0032661457,-0.0005769825,-0.01214426,-0.016767275,-0.053875495,-0.017464563,0.28256786,-1.0530953,0.01023155,229.39902,0.1,0.08501748,0.10265949,0.01989808,0.014420551,inf,inf,inf,inf,1,1,1,1,2,0,2,1,4,0,1,1,1,0
6971128000,6971128000,1032000,41.606704,-86.3556021,-0.6450065,-1.3872206,0.11239097,0.0003608431,0.00019367777,0.0,0.00011277672,-0.005378653,0.0048063584,0.0036112622,-0.0005769825,-0.01214426,-0.016767275,-0.028971098,-0.05430737,-0.21376652,-1.0530521,0.01023155,229.39902,0.1,0.085020885,0.10261686,0.020360293,0.014769956,inf,inf,inf,inf,1,1,1,1,2,0,2,1,4,0,1,1,1,0
6971136000,6971136000,1032000,41.606704,-86.3556021,-0.645019,-1.3872579,0.1123792,0.0003608431,0.00019367777,0.0,0.00016742414,-0.005178782,0.0030926303,0.001881176,-0.0005769825,-0.01214426,-0.016767275,0.014840161,0.045750942,-0.07286208,-1.0530514,0.01023155,229.39902,0.1,0.08502461,0.10261851,0.02081972,0.015114593,inf,inf,inf,inf,1,1,1,1,2,0,2,1,4,0,1,1,1,0
6971144000,6971144000,1032000,41.606704,-86.3556021,-0.64503145,-1.3872862,0.11236878,0.0003608431,0.00019367777,0.0,0.00023178537,-0.0049496507,0.0042678053,0.0030481773,-0.0005769825,-0.01214426,-0.016767275,0.015001399,0.011234767,0.30679062,-1.0530496,0.01023155,229.39902,0.1,0.08500249,0.10260855,0.0014142136,0.001,inf,inf,inf,inf,1,1,1,1,2,0,2,1,4,0,1,1,1,0
6971152000,6971152000,1032000,41.606704,-86.3556021,-0.6450426,-1.3873123,0.11237299,0.0003608431,0.00019367777,0.0,0.00046251222,-0.0047007627,0.004892267,0.003665072,-0.0005769825,-0.01214426,-0.016767275,0.029690422,0.03319288,-0.19878806,-1.0530806,0.01023155,229.39902,0.1,0.085002504,0.102608554,0.0042137424,0.0029834493,inf,inf,inf,inf,1,1,1,1,2,0,2,1,4,0,1,1,1,0
6971160000,6971160000,1032000,41.606704,-86.3556021,-0.6450535,-1.387337,0.11236722,0.0003608431,0.00019367777,0.0,0.00019568422,-0.0048246915,0.0034226791,0.0021885096,-0.0005769825,-0.01214426,-0.016767275,-0.048701,-0.03753691,-0.0180314,-1.0530808,0.01023155,229.39902,0.1,0.085002534,0.10260857,0.005798793,0.004111193,inf,inf,inf,inf,1,1,1,1,2,0,2,1,4,0,1,1,1,0
6971168000,6971168000,1032000,41.606704,-86.3556021,-0.6450671,-1.387363,0.11236312,0.0003608431,0.00019367777,0.0,-0.00012349698,-0.0050803367,0.005060368,0.0038198007,-0.0005769825,-0.01214426,-0.016767275,-0.030823398,-0.03286288,0.33745906,-1.0530751,0.01023155,229.39902,0.1,0.08500257,0.10260859,0.0070450627,0.0050002798,inf,inf,inf,inf,1,1,1,1,2,0,2,1,4,0,1,1,1,0
6971176000,6971176000,1032000,41.606704,-86.3556021,-0.645082,-1.3873885,0.11237393,0.0003608431,0.00019367777,0.0,-0.0001332915,-0.00490013,0.0052372483,0.0039908425,-0.0005769825,-0.01214426,-0.016767275,0.013835347,0.018127162,-0.28950724,-1.053055,0.01023155,229.39902,0.1,0.085002646,0.10260862,0.008108808,0.0057622576,inf,inf,inf,inf,1,1,1,1,2,0,2,1,4,0,1,1,1,0
6971184000,6971184000,1032000,41.606704,-86.3556021,-0.6450951,-1.3874123,0.112367794,0.0003608431,0.00019367777,0.0,0.00026064648,-0.0046642334,0.003618712,0.002363726,-0.0005769825,-0.01214426,-0.016767275,0.052045405,0.049741454,0.011665683,-1.0530447,0.01023155,229.39902,0.1,0.08500276,0.1025646,0.009055008,0.006442391,inf,inf,inf,inf,1,1,1,1,2,0,2,1,4,0,1,1,1,0
6971192000,6971192000,1032000,41.606704,-86.3556021,-0.64510536,-1.3874311,0.11236103,0.0003608431,0.00019367777,0.0,0.000534846,-0.003945308,0.003939224,0.0026763056,-0.0005769825,-0.01214426,-0.016767275,0.027778076,0.078871794,0.008869853,-1.0530059,0.01023155,229.39902,0.1,0.08500292,0.102564685,0.0099174585,0.007064359,inf,inf,inf,inf,1,1,1,1,2,0,2,1,4,0,1,1,1,0
6971200000,6971200000,1032000,41.606704,-86.3556021,-0.64511585,-1.3874458,0.11235576,0.0003608431,0.00019367777,0.0,0.00016602245,-0.0038329405,0.0039697504,0.0026995305,-0.0005769825,-0.01214426,-0.016767275,-0.054143786,-0.019991413,0.011660095,-1.0529648,0.01023155,229.39902,0.1,0.08500316,0.10256479,0.01071608,0.0076423744,inf,inf,inf,inf,1,1,1,1,2,0,2,1,4,0,1,1,1,0
6971208000,6971208000,1032000,41.606704,-86.3556021,-0.6451295,-1.3874611,0.11235091,0.0003608431,0.00019367777,0.0,-0.00025868617,-0.004018045,0.0039346186,0.00265771,-0.0005769825,-0.01214426,-0.016767275,-0.056814022,-0.009017322,0.0091054775,-1.0529602,0.01023155,229.39902,0.1,0.08500347,0.10256492,0.011464881,0.008185755,inf,inf,inf,inf,1,1,1,1,2,0,2,1,4,0,1,1,1,0
6971216000,6971216000,1032000,41.606704,-86.3556021,-0.6451477,-1.3874749,0.11235561,0.0003608431,0.00019367777,0.0,-0.0009622781,-0.0037902147,0.0061941524,0.0049111512,-0.0005769825,-0.01214426,-0.016767275,-0.08787311,0.009064773,0.30221224,-1.0529499,0.01023155,229.39902,0.1,0.08500387,0.1025651,0.012173959,0.008700986,inf,inf,inf,inf,1,1,1,1,2,0,2,1,4,0,1,1,1,0
6971224000,6971224000,1032000,41.606704,-86.3556021,-0.6451684,-1.3874878,0.11236162,0.0003608431,0.00019367777,0.0,-0.0007986206,-0.003814377,0.0037643523,0.0024758275,-0.0005769825,-0.01214426,-0.016767275,0.051997207,0.0021180895,-0.3599832,-1.0529556,0.01023155,229.39902,0.1,0.08500438,0.10256532,0.012847296,0.009192808,inf,inf,inf,inf,1,1,1,1,2,0,2,1,4,0,1,1,1,0
6971232000,6971232000,1032000,41.606704,-86.3556021,-0.6451874,-1.3874997,0.11235591,0.0003608431,0.00019367777,0.0,-0.0007196779,-0.0037048592,0.003627939,0.0023344331,-0.0005769825,-0.01214426,-0.016767275,-0.00531605,0.003115985,0.050746772,-1.0529428,0.01023155,229.39902,0.1,0.085005,0.102565594,0.013491958,0.009664792,inf,inf,inf,inf,1,1,1,1,2,0,2,1,4,0,1,1,1,0
6971240000,6971240000,1032000,41.606704,-86.3556021,-0.645207,-1.3875105,0.112361945,0.0003608431,0.00019367777,0.0,-0.0009558112,-0.0038039775,0.0062784185,0.004980408,-0.0005769825,-0.01214426,-0.016767275,-0.0316852,-0.010778289,0.3407224,-1.0529625,0.01023155,229.39902,0.1,0.08485261,0.10256592,0.014105253,0.010117161,inf,inf,inf,inf,1,1,1,1,2,0,2,1,4,0,1,1,1,0
6971248000,6971248000,1032000,41.606704,-86.3556021,-0.6452283,-1.3875203,0.112371966,0.0003608431,0.00019367777,0.0,-0.0011518743,-0.0035185523,0.0038864906,0.0025857722,-0.0005769825,-0.01214426,-0.016767275,-0.014893864,0.043419342,-0.34731257,-1.0529604,0.01023155,229.39902,0.1,0.08485351,0.102522306,0.014702716,0.010557311,inf,inf,inf,inf,1,1,1,1,2,0,2,1,4,0,1,1,1,0
6971256000,6971256000,1032000,41.606704,-86.3556021,-0.64524853,-1.3875273,0.11237098,0.0003608431,0.00019367777,0.0,-0.0006375474,-0.003344198,0.003761443,0.0024584697,-0.0005769825,-0.01214426,-0.016767275,0.081199445,-0.0030552382,0.023161927,-1.0529577,0.01023155,229.39902,0.1,0.084854566,0.10252277,0.01528189,0.010984378,inf,inf,inf,inf,1,1,1,1,2,0,2,1,4,0,1,1,1,0
6971264000,6971264000,1032000,41.606704,-86.3556021,-0.6452663,-1.3875326,0.11238004,0.0003608431,0.00019367777,0.0,-0.0006784749,-0.0030397302,0.0061412086,0.0048364196,-0.0005769825,-0.01214426,-0.016767275,-0.014304765,0.048561905,0.3182766,-1.0529426,0.01023155,229.39902,0.1,0.084855795,0.102523305,0.015845288,0.011399836,inf,inf,inf,inf,1,1,1,1,2,0,2,1,4,0,1,1,1,0
6971272000,6971272000,1032000,41.606704,-86.3556021,-0.6452844,-1.3875371,0.11238863,0.0003608431,0.00019367777,0.0,-0.00077150966,-0.003361324,0.003225387,0.0019192096,-0.0005769825,-0.01214426,-0.016767275,-0.027630674,-0.054307386,-0.41049537,-1.0529152,0.01023155,229.39902,0.1,0.0848572,0.10252393,0.016391901,0.011804908,inf,inf,inf,inf,1,1,1,1,2,0,2,1,4,0,1,1,1,0
6971280000,6971280000,1032000,41.606704,-86.3556021,-0.64530396,-1.3875417,0.11238551,0.0003608431,0.00019367777,0.0,-0.0009597209,-0.0030655276,0.003385829,0.0020786768,-0.0005769825,-0.01214426,-0.016767275,-0.011758118,0.032976072,0.056315146,-1.0528812,0.01023155,229.39902,0.1,0.08485882,0.10252464,0.016924921,0.012200635,inf,inf,inf,inf,1,1,1,1,2,0,2,1,4,0,1,1,1,0
6971288000,6971288000,1032000,41.606704,-86.3556021,-0.6453256,-1.3875442,0.1123828,0.0003608431,0.00019367777,0.0,-0.0013969248,-0.002876396,0.0029937692,0.0016860442,-0.0005769825,-0.01214426,-0.016767275,-0.06422698,0.038565908,-0.057429135,-1.0528818,0.01023155,229.39902,0.1,0.08486064,0.102525435,0.01744545,0.012587896,inf,inf,inf,inf,1,1,1,1,2,0,2,1,4,0,1,1,1,0
6971296000,6971296000,1032000,41.606704,-86.3556021,-0.6453491,-1.3875436,0.1123792,0.0003608431,0.00019367777,0.0,-0.0013152552,-0.00249756,0.0035521947,0.0022442862,-0.0005769825,-0.01214426,-0.016767275,0.03274655,0.025386808,0.19643542,-1.0528811,0.01023155,229.39902,0.1,0.084862694,0.102526344,0.017952578,0.012967447,inf,inf,inf,inf,1,1,1,1,2,0,2,1,4,0,1,1,1,0
6971304000,6971304000,1032000,41.606704,-86.3556021,-0.6453725,-1.3875415,0.11238548,0.0003608431,0.00019367777,0.0,-0.0016109608,-0.0025230786,0.0035674644,0.0022606633,-0.0005769825,-0.01214426,-0.016767275,-0.06621815,-0.006650328,-0.25190789,-1.0528555,0.01023155,229.39902,0.1,0.08486499,0.10248339,0.018453207,0.013339947,inf,inf,inf,inf,1,1,1,1,2,0,2,1,4,0,1,1,1,0
6971312000,6971312000,1032000,41.606704,-86.3556021,-0.6453988,-1.3875384,0.11237879,0.0003608431,0.00019367777,0.0,-0.0018222325,-0.002280092,0.00174549,0.00044013027,-0.0005769825,-0.01214426,-0.016767275,0.0029625492,0.030042427,-0.0849404,-1.0528805,0.01023155,229.39902,0.1,0.084867544,0.10248452,0.018942242,0.01370597,inf,inf,inf,inf,1,1,1,1,2,0,2,1,4,0,1,1,1,0
6971320000,6971320000,1032000,41.606704,-86.3556021,-0.6454246,-1.3875343,0.11236874,0.0003608431,0.00019367777,0.0,-0.0016287627,-0.0023765904,0.0026298119,0.0013262171,-0.0005769825,-0.01214426,-0.016767275,0.028411431,-0.02793887,0.26426736,-1.0528986,0.01023155,229.39902,0.1,0.08487036,0.10248576,0.019419834,0.014066026,inf,inf,inf,inf,1,1,1,1,2,0,2,1,4,0,1,1,1,0
6971328000,6971328000,1032000,41.606704,-86.3556021,-0.6454487,-1.3875316,0.11236976,0.0003608431,0.00019367777,0.0,-0.0014547099,-0.002668171,0.0025602528,0.0012587362,-0.0005769825,-0.01214426,-0.016767275,0.010779661,-0.03750526,-0.31023103,-1.0529054,0.01023155,229.39902,0.1,0.084873475,0.10248713,0.019893805,0.014420555,inf,inf,inf,inf,1,1,1,1,2,0,2,1,4,0,1,1,1,0
6971336000,6971336000,1032000,41.606704,-86.3556021,-0.64547247,-1.3875295,0.11235668,0.0003608431,0.00019367777,0.0,-0.0015216535,-0.0025422685,0.0008240627,-0.0004750724,-0.0005769825,-0.01214426,-0.016767275,-0.0027522082,0.021670274,-0.052480087,-1.0529156,0.01023155,229.39902,0.1,0.08487689,0.102488644,0.020358022,0.014769957,inf,inf,inf,inf,1,1,1,1,2,0,2,1,4,0,1,1,1,0
6971344000,6971344000,1032000,41.606704,-86.3556021,-0.64549696,-1.387527,0.11234016,0.0003608431,0.00019367777,0.0,-0.0017031096,-0.002742259,0.0014067874,0.00011032732,-0.0005769825,-0.01214426,-0.016767275,-0.026142418,-0.052974895,0.19887269,-1.0528955,0.01023155,229.39902,0.1,0.08488061,0.10249029,0.02081267,0.015114591,inf,inf,inf,inf,1,1,1,1,2,0,2,1,4,0,1,1,1,0
6971352000,6971352000,1032000,41.606704,-86.3556021,-0.6455168,-1.3875266,0.112324804,0.0003608431,0.00019367777,0.0,-0.0015657364,-0.003158118,0.0010108561,-0.00029794377,-0.0005769825,-0.01214426,-0.016767275,0.017201386,-0.04840525,-0.3334191,-1.0528672,0.01023155,229.39902,0.1,0.084858485,0.1024364,0.0014142136,0.001,inf,inf,inf,inf,1,1,1,1,2,0,2,1,4,0,1,1,1,0
6971360000,6971360000,1032000,41.606704,-86.3556021,-0.645534,-1.3875265,0.11229402,0.0003608431,0.00019367777,0.0,-0.0010737899,-0.002690222,-0.00036059436,-0.0016810843,-0.0005769825,-0.01214426,-0.016767275,0.076205604,0.10395827,0.07133179,-1.0528444,0.01023155,229.39902,0.1,0.0848585,0.10243641,0.004213712,0.0029834483,inf,inf,inf,inf,1,1,1,1,2,0,2,1,4,0,1,1,1,0
6971368000,6971368000,1032000,41.606704,-86.3556021,-0.6455458,-1.3875211,0.11226801,0.0003608431,0.00019367777,0.0,-0.000461769,-0.0022715419,0.0016761202,0.0003445755,-0.0005769825,-0.01214426,-0.016767275,0.052504938,0.0037810304,0.36853543,-1.0528346,0.01023155,229.39902,0.1,0.08485853,0.10243642,0.005799471,0.0041111903,inf,inf,inf,inf,1,1,1,1,2,0,2,1,4,0,1,1,1,0
6971376000,6971376000,1032000,41.606704,-86.3556021,-0.64555633,-1.387515,0.11225701,0.0003608431,0.00019367777,0.0,-0.00085791526,-0.0023218894,0.0017315821,0.0003896039,-0.0005769825,-0.01214426,-0.016767275,-0.07448709,-0.001824026,-0.2860837,-1.0528313,0.01023155,229.39902,0.1,0.08485857,0.102436446,0.0070449365,0.0050002756,inf,inf,inf,inf,1,1,1,1,2,0,2,1,4,0,1,1,1,0
6971384000,6971384000,1032000,41.606704,-86.3556021,-0.6455694,-1.3875089,0.11223222,0.0003608431,0.00019367777,0.0,-0.0009673639,-0.0023832894,0.00014680446,-0.0012050003,-0.0005769825,-0.01214426,-0.016767275,0.008364711,-0.022094492,-0.015328701,-1.0528111,0.01023155,229.39902,0.1,0.08485863,0.102436475,0.008108816,0.0057622553,inf,inf,inf,inf,1,1,1,1,2,0,2,1,4,0,1,1,1,0
6971392000,6971392000,1032000,41.606704,-86.3556021,-0.6455806,-1.3875036,0.11220735,0.0003608431,0.00019367777,0.0,-0.00063377165,-0.0025669015,0.0014917132,0.00013067525,-0.0005769825,-0.01214426,-0.016767275,0.028455384,-0.03005886,0.3044176,-1.052811,0.01023155,229.39902,0.1,0.08485875,0.10243653,0.009056094,0.006442388,inf,inf,inf,inf,1,1,1,1,2,0,2,1,4,0,1,1,1,0
6971400000,6971400000,1032000,41.606704,-86.3556021,-0.6455908,-1.3875015,0.11219661,0.0003608431,0.00019367777,0.0,-0.00081823143,-0.0032403457,0.002018503,0.00064881146,-0.0005769825,-0.01214426,-0.016767275,-0.03768753,-0.09825719,-0.20331149,-1.052791,0.01023155,229.39902,0.1,0.08485892,0.1024366,0.00991846,0.007064354,inf,inf,inf,inf,1,1,1,1,2,0,2,1,4,0,1,1,1,0
6971408000,6971408000,1032000,41.606704,-86.3556021,-0.645601,-1.3875029,0.11217253,0.0003608431,0.00019367777,0.0,-0.0005382956,-0.0033056883,0.00043571938,-0.00094396964,-0.0005769825,-0.01214426,-0.016767275,0.06158368,0.01979766,-0.022012802,-1.052793,0.01023155,229.39902,0.1,0.08485915,0.10239287,0.010717796,0.007642369,inf,inf,inf,inf,1,1,1,1,2,0,2,1,4,0,1,1,1,0
6971416000,6971416000,1032000,41.606704,-86.3556021,-0.64560735,-1.3875031,0.11214577,0.0003608431,0.00019367777,0.0,-0.00019674066,-0.0031523462,0.00053287216,-0.00085619366,-0.0005769825,-0.01214426,-0.016767275,0.011167673,-0.00019454482,-0.0024876257,-1.0527489,0.01023155,229.39902,0.1,0.08485946,0.102393,0.011467924,0.008185746,inf,inf,inf,inf,1,1,1,1,2,0,2,1,4,0,1,1,1,0
6971424000,6971424000,1032000,41.606704,-86.3556021,-0.64561296,-1.3875036,0.11212299,0.0003608431,0.00019367777,0.0,-0.00028774282,-0.0033184893,0.0021221288,0.0007242919,-0.0005769825,-0.01214426,-0.016767275,-0.010573309,-0.01301717,0.36887258,-1.0527033,0.01023155,229.39902,0.1,0.08485987,0.10239318,0.012175909,0.008700981,inf,inf,inf,inf,1,1,1,1,2,0,2,1,4,0,1,1,1,0
6971432000,6971432000,1032000,41.606704,-86.3556021,-0.64561915,-1.3875041,0.112116106,0.0003608431,0.00019367777,0.0,-0.0004865228,-0.003202135,0.0026610943,0.0012551,-0.0005769825,-0.01214426,-0.016767275,-0.040735006,0.007107185,-0.22520036,-1.05274,0.01023155,229.39902,0.1,0.08486038,0.1023934,0.012850315,0.009192806,inf,inf,inf,inf,1,1,1,1,2,0,2,1,4,0,1,1,1,0
6971440000,6971440000,1032000,41.606704,-86.3556021,-0.64562535,-1.3875027,0.11209711,0.0003608431,0.00019367777,0.0,-0.00021322112,-0.002810735,0.0008609611,-0.0005525681,-0.0005769825,-0.01214426,-0.016767275,0.05968113,0.05567895,-0.0584331,-1.0527405,0.01023155,229.39902,0.1,0.084861,0.10239367,0.013496406,0.009664789,inf,inf,inf,inf,1,1,1,1,2,0,2,1,4,0,1,1,1,0
6971448000,6971448000,1032000,41.606704,-86.3556021,-0.6456283,-1.3874984,0.11207711,0.0003608431,0.00019367777,0.0,6.334387e-06,-0.002524513,0.002264007,0.00084355194,-0.0005769825,-0.01214426,-0.016767275,-0.008771629,0.01942048,0.3193253,-1.0527091,0.01023155,229.39902,0.1,0.08470939,0.10239401,0.014107456,0.010117155,inf,inf,inf,inf,1,1,1,1,2,0,2,1,4,0,1,1,1,0
6971456000,6971456000,1032000,41.606704,-86.3556021,-0.64563423,-1.3874943,0.1120707,0.0003608431,0.00019367777,0.0,-0.0009487081,-0.002824725,0.0024823332,0.0010555441,-0.0005769825,-0.01214426,-0.016767275,-0.12867184,-0.03772156,-0.26992247,-1.0527062,0.01023155,229.39902,0.1,0.08471029,0.1023944,0.0147060715,0.010557303,inf,inf,inf,inf,1,1,1,1,2,0,2,1,4,0,1,1,1,0
6971464000,6971464000,1032000,41.606704,-86.3556021,-0.64564395,-1.3874905,0.11204921,0.0003608431,0.00019367777,0.0,-0.0008026269,-0.0025911035,0.00023715332,-0.0011951273,-0.0005769825,-0.01214426,-0.016767275,0.05058359,0.029654311,-0.10591006,-1.0527048,0.01023155,229.39902,0.1,0.08471135,0.10235108,0.015286647,0.010984372,inf,inf,inf,inf,1,1,1,1,2,0,2,1,4,0,1,1,1,0
6971472000,6971472000,1032000,41.606704,-86.3556021,-0.6456513,-1.3874855,0.11202168,0.0003608431,0.00019367777,0.0,-0.0006602186,-0.0026035889,0.00024385811,-0.0011933611,-0.0005769825,-0.01214426,-0.016767275,-0.007800863,-0.015747363,0.012154628,-1.0526627,0.01023155,229.39902,0.1,0.08471258,0.10235161,0.015847934,0.011399832,inf,inf,inf,inf,1,1,1,1,2,0,2,1,4,0,1,1,1,0
6971480000,6971480000,1032000,41.606704,-86.3556021,-0.64565915,-1.3874801,0.11200449,0.0003608431,0.00019367777,0.0,-0.0010276028,-0.0024184415,0.0028413336,0.0013997145,-0.0005769825,-0.01214426,-0.016767275,-0.07864549,0.03271436,0.34795973,-1.0526336,0.01023155,229.39902,0.1,0.084713995,0.10235224,0.016394464,0.011804912,inf,inf,inf,inf,1,1,1,1,2,0,2,1,4,0,1,1,1,0
6971488000,6971488000,1032000,41.606704,-86.3556021,-0.6456712,-1.387474,0.111987814,0.0003608431,0.00019367777,0.0,-0.0014781606,-0.0025104247,-6.690603e-05,-0.0015124001,-0.0005769825,-0.01214426,-0.016767275,-0.02234997,-0.024479661,-0.42828268,-1.0526192,0.01023155,229.39902,0.1,0.08471562,0.10235295,0.01692884,0.01220064,inf,inf,inf,inf,1,1,1,1,2,0,2,1,4,0,1,1,1,0
6971496000,6971496000,1032000,41.606704,-86.3556021,-0.6456835,-1.3874679,0.11195413,0.0003608431,0.00019367777,0.0,-0.0013156029,-0.002363467,-0.00095641,-0.0024052674,-0.0005769825,-0.01214426,-0.016767275,0.012426978,0.033724666,-0.044864662,-1.0526118,0.01023155,229.39902,0.1,0.084717445,0.102353744,0.017449321,0.012587898,inf,inf,inf,inf,1,1,1,1,2,0,2,1,4,0,1,1,1,0
6971504000,6971504000,1032000,41.606704,-86.3556021,-0.64569616,-1.3874614,0.111929044,0.0003608431,0.00019367777,0.0,-0.0016546912,-0.002662042,0.0019656578,0.000513935,-0.0005769825,-0.01214426,-0.016767275,-0.062748976,-0.088987835,0.4263333,-1.0526087,0.01023155,229.39902,0.1,0.08471951,0.10235465,0.017957065,0.01296745,inf,inf,inf,inf,1,1,1,1,2,0,2,1,4,0,1,1,1,0
6971512000,6971512000,1032000,41.606704,-86.3556021,-0.64571244,-1.3874582,0.11190785,0.0003608431,0.00019367777,0.0,-0.0020692216,-0.0027662301,-0.0007256228,-0.002179726,-0.0005769825,-0.01214426,-0.016767275,-0.027306534,0.036161248,-0.45070335,-1.0526184,0.01023155,229.39902,0.1,0.0847218,0.10235566,0.018455172,0.01333995,inf,inf,inf,inf,1,1,1,1,2,0,2,1,4,0,1,1,1,0
6971520000,6971520000,1032000,41.606704,-86.3556021,-0.6457282,-1.3874533,0.11186818,0.0003608431,0.00019367777,0.0,-0.0016588824,-0.002493463,-0.0020280478,-0.003483938,-0.0005769825,-0.01214426,-0.016767275,0.053263802,0.023458024,-0.087876864,-1.0525364,0.01023155,229.39902,0.1,0.08472437,0.10231305,0.018945724,0.013705971,inf,inf,inf,inf,1,1,1,1,2,0,2,1,4,0,1,1,1,0
6971528000,6971528000,1032000,41.606704,-86.3556021,-0.64574,-1.3874466,0.111827746,0.0003608431,0.00019367777,0.0,-0.0012437972,-0.0023643442,-0.0006782295,-0.002135452,-0.0005769825,-0.01214426,-0.016767275,0.024129855,-0.01362663,0.32934725,-1.0524603,0.01023155,229.39902,0.1,0.0847272,0.10231429,0.019424487,0.014066024,inf,inf,inf,inf,1,1,1,1,2,0,2,1,4,0,1,1,1,0
6971536000,6971536000,1032000,41.606704,-86.3556021,-0.6457522,-1.3874414,0.11180296,0.0003608431,0.00019367777,0.0,-0.0016919023,-0.0025923876,-1.4633613e-05,-0.001472746,-0.0005769825,-0.01214426,-0.016767275,-0.062249903,0.005522735,-0.2191477,-1.0524848,0.01023155,229.39902,0.1,0.08473031,0.10231567,0.019896073,0.014420557,inf,inf,inf,inf,1,1,1,1,2,0,2,1,4,0,1,1,1,0
6971544000,6971544000,1032000,41.606704,-86.3556021,-0.6457666,-1.3874348,0.111766,0.0003608431,0.00019367777,0.0,-0.0017195387,-0.0022860595,-0.002058479,-0.0035170508,-0.0005769825,-0.01214426,-0.016767275,0.018431183,0.011816392,-0.11397904,-1.0524966,0.01023155,229.39902,0.1,0.08473373,0.10231718,0.020362368,0.014769961,inf,inf,inf,inf,1,1,1,1,2,0,2,1,4,0,1,1,1,0
6971552000,6971552000,1032000,41.606704,-86.3556021,-0.64577955,-1.3874285,0.111723445,0.0003608431,0.00019367777,0.0,-0.001500852,-0.0025652857,-0.0013004843,-0.002759097,-0.0005769825,-0.01214426,-0.016767275,0.011003857,-0.045900498,0.28793693,-1.0524352,0.01023155,229.39902,0.1,0.084737465,0.10231883,0.0208194,0.015114597,inf,inf,inf,inf,1,1,1,1,2,0,2,1,4,0,1,1,1,0
6971560000,6971560000,1032000,41.606704,-86.3556021,-0.6457913,-1.3874252,0.111691445,0.0003608431,0.00019367777,0.0,-0.0018902195,-0.00282273,-0.00036661723,-0.001833302,-0.0005769825,-0.01214426,-0.016767275,-0.057952657,-0.024921747,-0.15616049,-1.0524392,0.01023155,229.39902,0.1,0.08471528,0.102308825,0.0014142136,0.001,inf,inf,inf,inf,1,1,1,1,2,0,2,1,4,0,1,1,1,0
6971568000,6971568000,1032000,41.606704,-86.3556021,-0.6458037,-1.3874227,0.11165009,0.0003608431,0.00019367777,0.0,-0.001609854,-0.0027299856,-0.0021692903,-0.0036434378,-0.0005769825,-0.01214426,-0.016767275,0.054832548,0.021918926,-0.12344686,-1.0524155,0.01023155,229.39902,0.1,0.0847153,0.10230884,0.004214371,0.0029834495,inf,inf,inf,inf,1,1,1,1,2,0,2,1,4,0,1,1,1,0
6971576000,6971576000,1032000,41.606704,-86.3556021,-0.6458129,-1.3874193,0.1116122,0.0003608431,0.00019367777,0.0,-0.0013955071,-0.0026795925,0.0003938962,-0.0010871192,-0.0005769825,-0.01214426,-0.016767275,-0.013909024,0.0038911095,0.40845752,-1.0523645,0.01023155,229.39902,0.1,0.08471532,0.10230885,0.0058004847,0.004111191,inf,inf,inf,inf,1,1,1,1,2,0,2,1,4,0,1,1,1,0
6971584000,6971584000,1032000,41.606704,-86.3556021,-0.64582384,-1.3874153,0.11157399,0.0003608431,0.00019367777,0.0,-0.0018520467,-0.0025951962,-0.002303083,-0.0037927134,-0.0005769825,-0.01214426,-0.016767275,-0.049178746,-0.0054852143,-0.39470014,-1.0523751,0.01023155,229.39902,0.1,0.08471537,0.102265194,0.0070453095,0.0050002784,inf,inf,inf,inf,1,1,1,1,2,0,2,1,4,0,1,1,1,0
6971592000,6971592000,1032000,41.606704,-86.3556021,-0.6458361,-1.3874103,0.1115362,0.0003608431,0.00019367777,0.0,-0.0017979888,-0.0022254356,0.0010124038,-0.00048519357,-0.0005769825,-0.01214426,-0.016767275,0.011549703,0.074422374,0.49719205,-1.0523542,0.01023155,229.39902,0.1,0.08471544,0.102265224,0.008110337,0.0057622595,inf,inf,inf,inf,1,1,1,1,2,0,2,1,4,0,1,1,1,0
6971600000,6971600000,1032000,41.606704,-86.3556021,-0.64584684,-1.3874027,0.11150283,0.0003608431,0.00019367777,0.0,-0.001541016,-0.0021346624,-0.0019107567,-0.0034156884,-0.0005769825,-0.01214426,-0.016767275,0.030950591,-0.01837102,-0.44251052,-1.0523357,0.01023155,229.39902,0.1,0.08471555,0.102265276,0.009057517,0.0064423913,inf,inf,inf,inf,1,1,1,1,2,0,2,1,4,0,1,1,1,0
6971608000,6971608000,1032000,41.606704,-86.3556021,-0.6458559,-1.3873955,0.11145949,0.0003608431,0.00019367777,0.0,-0.001521831,-0.0022777882,-0.00037911552,-0.0018907655,-0.0005769825,-0.01214426,-0.016767275,-0.027378999,-0.030407917,0.41255718,-1.0522822,0.01023155,229.39902,0.1,0.08471572,0.10226535,0.009919759,0.007064357,inf,inf,inf,inf,1,1,1,1,2,0,2,1,4,0,1,1,1,0
6971616000,6971616000,1032000,41.606704,-86.3556021,-0.64586776,-1.3873926,0.111432336,0.0003608431,0.00019367777,0.0,-0.0021448354,-0.0031276504,-0.00013203963,-0.0016498076,-0.0005769825,-0.01214426,-0.016767275,-0.07786276,-0.10662677,-0.30701053,-1.0522642,0.01023155,229.39902,0.1,0.08471595,0.102265455,0.0107188085,0.007642373,inf,inf,inf,inf,1,1,1,1,2,0,2,1,4,0,1,1,1,0
6971624000,6971624000,1032000,41.606704,-86.3556021,-0.64588124,-1.3873924,0.111390024,0.0003608431,0.00019367777,0.0,-0.0018378164,-0.002810909,-0.0021181214,-0.0036414224,-0.0005769825,-0.01214426,-0.016767275,0.06781476,0.06668233,-0.051098935,-1.0522559,0.01023155,229.39902,0.1,0.08471626,0.1022656,0.011469161,0.008185751,inf,inf,inf,inf,1,1,1,1,2,0,2,1,4,0,1,1,1,0
6971632000,6971632000,1032000,41.606704,-86.3556021,-0.64589155,-1.387389,0.11135387,0.0003608431,0.00019367777,0.0,-0.0016916676,-0.0023982185,0.0006088435,-0.00091942144,-0.0005769825,-0.01214426,-0.016767275,-0.029198784,0.053673565,0.36223876,-1.0522363,0.01023155,229.39902,0.1,0.08471667,0.10226577,0.0121770855,0.008700985,inf,inf,inf,inf,1,1,1,1,2,0,2,1,4,0,1,1,1,0
6971640000,6971640000,1032000,41.606704,-86.3556021,-0.64590377,-1.3873829,0.11132244,0.0003608431,0.00019367777,0.0,-0.0021023348,-0.0021780739,-0.0014474813,-0.002979361,-0.0005769825,-0.01214426,-0.016767275,-0.03738196,0.009363513,-0.3051609,-1.0522238,0.01023155,229.39902,0.1,0.084717184,0.10222237,0.012850736,0.00919281,inf,inf,inf,inf,1,1,1,1,2,0,2,1,4,0,1,1,1,0
6971648000,6971648000,1032000,41.606704,-86.3556021,-0.6459165,-1.3873749,0.11127971,0.0003608431,0.00019367777,0.0,-0.0018320847,-0.0017461267,-0.0019635053,-0.0034984641,-0.0005769825,-0.01214426,-0.016767275,0.05121576,0.076120056,-0.028483631,-1.0522063,0.01023155,229.39902,0.1,0.08471781,0.102222644,0.013497143,0.009664795,inf,inf,inf,inf,1,1,1,1,2,0,2,1,4,0,1,1,1,0
6971656000,6971656000,1032000,41.606704,-86.3556021,-0.64592755,-1.3873626,0.111244425,0.0003608431,0.00019367777,0.0,-0.001982335,-0.0012432272,0.00042423152,-0.0011132854,-0.0005769825,-0.01214426,-0.016767275,-0.07243876,0.049620084,0.3587668,-1.0522219,0.01023155,229.39902,0.1,0.08471857,0.10222297,0.014115667,0.010119721,inf,inf,inf,inf,1,1,1,1,2,0,2,1,4,0,1,1,1,0
6971664000,6971664000,1032000,41.606704,-86.3556021,-0.6459427,-1.3873469,0.11121064,0.0003608431,0.00019367777,0.0,-0.002453801,-0.0007784527,-0.0022708697,-0.0038104374,-0.0005769825,-0.01214426,-0.016767275,-0.009881513,0.061973352,-0.42926523,-1.0522718,0.01023155,229.39902,0.1,0.08471948,0.10222337,0.014716029,0.010559793,inf,inf,inf,inf,1,1,1,1,2,0,2,1,4,0,1,1,1,0
6971672000,6971672000,1032000,41.606704,-86.3556021,-0.6459555,-1.3873273,0.11116072,0.0003608431,0.00019367777,0.0,-0.0015763789,-0.00029420992,-0.003088537,-0.0046296623,-0.0005769825,-0.01214426,-0.016767275,0.117805764,0.057682727,-0.041443914,-1.052239,0.01023155,229.39902,0.1,0.08472054,0.102223836,0.01529283,0.010986791,inf,inf,inf,inf,1,1,1,1,2,0,2,1,4,0,1,1,1,0
6971680000,6971680000,1032000,41.606704,-86.3556021,-0.6459623,-1.3873043,0.11111936,0.0003608431,0.00019367777,0.0,-0.0012123751,5.8757516e-05,-0.00025744393,-0.0017996468,-0.0005769825,-0.01214426,-0.016767275,-0.0055951974,0.029262265,0.40208167,-1.0522647,0.01023155,229.39902,0.1,0.084721774,0.10222437,0.01585715,0.011402189,inf,inf,inf,inf,1,1,1,1,2,0,2,1,4,0,1,1,1,0
6971688000,6971688000,1032000,41.606704,-86.3556021,-0.64597034,-1.3872803,0.1110831,0.0003608431,0.00019367777,0.0,-0.0016842505,2.137012e-05,-0.0023359726,-0.0038787862,-0.0005769825,-0.01214426,-0.016767275,-0.05702418,-0.011362745,-0.31320477,-1.0523003,0.01023155,229.39902,0.1,0.0847232,0.102225,0.016402766,0.011807212,inf,inf,inf,inf,1,1,1,1,2,0,2,1,4,0,1,1,1,0
6971696000,6971696000,1032000,41.606704,-86.3556021,-0.64597905,-1.387256,0.111038364,0.0003608431,0.00019367777,0.0,-0.001297892,0.00031098182,-0.0014923686,-0.0030353395,-0.0005769825,-0.01214426,-0.016767275,0.066343024,0.05914342,0.28424144,-1.0522836,0.01023155,229.39902,0.1,0.08472482,0.10222571,0.016935568,0.012202896,inf,inf,inf,inf,1,1,1,1,2,0,2,1,4,0,1,1,1,0
6971704000,6971704000,1032000,41.606704,-86.3556021,-0.645986,-1.3872292,0.1110094,0.0003608431,0.00019367777,0.0,-0.0014050445,0.00047992426,-0.0014635607,-0.0030025057,-0.0005769825,-0.01214426,-0.016767275,-0.02830838,-0.0017514091,-0.32055753,-1.0523051,0.01023155,229.39902,0.1,0.084726654,0.10218294,0.01745764,0.012590108,inf,inf,inf,inf,1,1,1,1,2,0,2,1,4,0,1,1,1,0
6971712000,6971712000,1032000,41.606704,-86.3556021,-0.64599335,-1.3872023,0.110966936,0.0003608431,0.00019367777,0.0,-0.0013642848,0.0004386708,-0.0021580034,-0.0036926265,-0.0005769825,-0.01214426,-0.016767275,-0.003346158,-0.013307737,0.28418183,-1.0523045,0.01023155,229.39902,0.1,0.084728725,0.10218385,0.0179643,0.012969616,inf,inf,inf,inf,1,1,1,1,2,0,2,1,4,0,1,1,1,0
6971720000,6971720000,1032000,41.606704,-86.3556021,-0.6460013,-1.3871765,0.110935695,0.0003608431,0.00019367777,0.0,-0.0014549226,0.00023778754,-0.0015553317,-0.003085346,-0.0005769825,-0.01214426,-0.016767275,0.0033650442,-0.020956762,-0.26165324,-1.0523348,0.01023155,229.39902,0.1,0.084731035,0.10218486,0.018464616,0.013342079,inf,inf,inf,inf,1,1,1,1,2,0,2,1,4,0,1,1,1,0
6971728000,6971728000,1032000,41.606704,-86.3556021,-0.6460082,-1.3871522,0.1108938,0.0003608431,0.00019367777,0.0,-0.0012850552,9.558315e-05,-0.0022787196,-0.003803846,-0.0005769825,-0.01214426,-0.016767275,-0.006197216,-0.019770885,0.22800726,-1.0523064,0.01023155,229.39902,0.1,0.0847336,0.10218599,0.01895397,0.013708067,inf,inf,inf,inf,1,1,1,1,2,0,2,1,4,0,1,1,1,0
6971736000,6971736000,1032000,41.606704,-86.3556021,-0.6460175,-1.3871299,0.11086159,0.0003608431,0.00019367777,0.0,-0.0018735441,-0.00028534784,-0.0016265605,-0.003146529,-0.0005769825,-0.01214426,-0.016767275,-0.060044795,-0.059378743,-0.20236154,-1.0522597,0.01023155,229.39902,0.1,0.08473644,0.102187246,0.019431768,0.014068087,inf,inf,inf,inf,1,1,1,1,2,0,2,1,4,0,1,1,1,0
6971744000,6971744000,1032000,41.606704,-86.3556021,-0.64602697,-1.3871089,0.11081811,0.0003608431,0.00019367777,0.0,-0.0013932906,8.941472e-06,-0.0034213976,-0.0049359463,-0.0005769825,-0.01214426,-0.016767275,0.058840197,0.07635436,-0.07276522,-1.0522338,0.01023155,229.39902,0.1,0.08473956,0.10218862,0.019906066,0.014422588,inf,inf,inf,inf,1,1,1,1,2,0,2,1,4,0,1,1,1,0
6971752000,6971752000,1032000,41.606704,-86.3556021,-0.6460348,-1.3870834,0.11077283,0.0003608431,0.00019367777,0.0,-0.0014997302,0.00064309273,-0.0021875754,-0.00369645,-0.0005769825,-0.01214426,-0.016767275,-0.028956471,0.061558634,0.29989138,-1.0521876,0.01023155,229.39902,0.1,0.084742986,0.10219013,0.020370971,0.014771963,inf,inf,inf,inf,1,1,1,1,2,0,2,1,4,0,1,1,1,0
6971760000,6971760000,1032000,41.606704,-86.3556021,-0.64604527,-1.3870552,0.11074112,0.0003608431,0.00019367777,0.0,-0.0020682334,0.0007382664,-0.0012936114,-0.002798516,-0.0005769825,-0.01214426,-0.016767275,-0.08944382,-0.0027604946,-0.15885201,-1.052186,0.01023155,229.39902,0.1,0.084746726,0.10214826,0.020825183,0.01511657,inf,inf,inf,inf,1,1,1,1,2,0,2,1,4,0,1,1,1,0
6971768000,6971768000,1032000,41.606704,-86.3556021,-0.64605516,-1.3870324,0.110710636,0.0003608431,0.00019367777,0.0,-0.0022808125,0.0009115013,-0.003018655,-0.0044981497,-0.0005769825,-0.01214426,-0.016767275,-0.015260183,0.035057187,-0.111707546,-1.0521505,0.01023155,229.39902,0.10017289,0.08472446,0.10213824,0.0014142136,0.001,inf,inf,inf,inf,1,1,1,1,2,0,2,1,4,0,1,1,1,0
6971776000,6971776000,1032000,41.606704,-86.3556021,-0.64606786,-1.387011,0.11068427,0.0003608431,0.00019367777,0.0,-0.0030075358,0.00041467178,-0.0007267754,-0.0021810988,-0.0005769825,-0.01214426,-0.016767275,-0.13062996,-0.06862817,0.34006956,-1.0521137,0.01023155,229.39902,0.10020281,0.08472448,0.10213825,0.0042135683,0.0029834488,inf,inf,inf,inf,1,1,1,1,2,0,2,1,4,0,1,1,1,0
6971784000,6971784000,1032000,41.606704,-86.3556021,-0.6460857,-1.3869928,0.110662,0.0003608431,0.00019367777,0.0,-0.0032599356,0.00035862497,-0.002714553,-0.004143945,-0.0005769825,-0.01214426,-0.016767275,0.016793586,0.006468696,-0.32563326,-1.0521227,0.01023155,229.39902,0.100232735,0.08472451,0.102138266,0.0057991184,0.0041111903,inf,inf,inf,inf,1,1,1,1,2,0,2,1,4,0,1,1,1,0
6971792000,6971792000,1032000,41.606704,-86.3556021,-0.6461017,-1.3869764,0.11063199,0.0003608431,0.00019367777,0.0,-0.0029234935,-5.4600958e-05,-0.0020123213,-0.0034170232,-0.0005769825,-0.01214426,-0.016767275,0.0101285605,-0.058427483,0.24399434,-1.0521371,0.01023155,229.39902,0.10026832,0.084724545,0.10213829,0.007044913,0.005000276,inf,inf,inf,inf,1,1,1,1,2,0,2,1,4,0,1,1,1,0
6971800000,6971800000,1032000,41.606704,-86.3556021,-0.64611703,-1.386964,0.11061472,0.0003608431,0.00019367777,0.0,-0.0030521217,-0.00043216636,-0.0014931022,-0.0028733553,-0.0005769825,-0.01214426,-0.016767275,-0.029996675,-0.02871317,-0.22211581,-1.0521206,0.01023155,229.39902,0.100291386,0.08472462,0.10213832,0.0081085265,0.005762256,inf,inf,inf,inf,1,1,1,1,2,0,2,1,4,0,1,1,1,0
6971808000,6971808000,1032000,41.606704,-86.3556021,-0.646133,-1.3869542,0.110587336,0.0003608431,0.00019367777,0.0,-0.0029756315,-0.00061029533,-0.0031378504,-0.0044938973,-0.0005769825,-0.01214426,-0.016767275,0.038993284,-0.017654335,-0.0739033,-1.0521153,0.01023155,229.39902,0.10032465,0.0845731,0.10213837,0.009053184,0.00644173,inf,inf,inf,inf,1,1,1,1,2,0,2,1,4,0,1,1,1,0
6971816000,6971816000,1032000,41.606704,-86.3556021,-0.64614576,-1.3869455,0.1105658,0.0003608431,0.00019367777,0.0,-0.0025256572,-0.0005499568,-0.0006498263,-0.0019819092,-0.0005769825,-0.01214426,-0.016767275,0.0245531,0.022350281,0.3361869,-1.0521047,0.01023155,229.39902,0.10035233,0.08457326,0.102138445,0.009915741,0.007063749,inf,inf,inf,inf,1,1,1,1,2,0,2,1,4,0,1,1,1,0
6971824000,6971824000,1032000,41.606704,-86.3556021,-0.64615643,-1.3869376,0.110548995,0.0003608431,0.00019367777,0.0,-0.0023914082,-0.00079831295,-0.001816707,-0.0031256573,-0.0005769825,-0.01214426,-0.016767275,0.007844158,-0.039994027,-0.06157725,-1.0521185,0.01023155,229.39902,0.10035286,0.0845735,0.10209509,0.010716015,0.007641801,inf,inf,inf,inf,1,1,1,1,2,0,2,1,4,0,1,1,1,0
6971832000,6971832000,1032000,41.606704,-86.3556021,-0.64616674,-1.3869323,0.110534385,0.0003608431,0.00019367777,0.0,-0.002395481,-0.000982054,-0.001788024,-0.0030740644,-0.0005769825,-0.01214426,-0.016767275,0.008967731,-0.0051424033,-0.2715914,-1.0521488,0.01023155,229.39902,0.10036789,0.08457381,0.102095224,0.011464541,0.008185209,inf,inf,inf,inf,1,1,1,1,2,0,2,1,4,0,1,1,1,0
6971840000,6971840000,1032000,41.606704,-86.3556021,-0.64617425,-1.3869292,0.11050782,0.0003608431,0.00019367777,0.0,-0.001755591,-0.0013032067,-0.003281864,-0.004545218,-0.0005769825,-0.01214426,-0.016767275,0.08192149,-0.033355173,-0.03301917,-1.0521625,0.01023155,229.39902,0.1004039,0.084574215,0.1020954,0.012172296,0.008700469,inf,inf,inf,inf,1,1,1,1,2,0,2,1,4,0,1,1,1,0
6971848000,6971848000,1032000,41.606704,-86.3556021,-0.64617693,-1.3869271,0.110482454,0.0003608431,0.00019367777,0.0,-0.0014289714,-0.0012083881,-0.0017942524,-0.0030351721,-0.0005769825,-0.01214426,-0.016767275,-0.0101257,0.001817466,0.32335138,-1.0521361,0.01023155,229.39902,0.10043542,0.08457473,0.10209563,0.012847588,0.009192312,inf,inf,inf,inf,1,1,1,1,2,0,2,1,4,0,1,1,1,0
6971856000,6971856000,1032000,41.606704,-86.3556021,-0.6461803,-1.3869265,0.110474564,0.0003608431,0.00019367777,0.0,-0.0015838295,-0.0014719652,-0.00087704055,-0.0020958076,-0.0005769825,-0.01214426,-0.016767275,0.015404069,-0.014180829,-0.18288293,-1.052131,0.01023155,229.39902,0.10045128,0.084575355,0.1020959,0.0134914145,0.00966432,inf,inf,inf,inf,1,1,1,1,2,0,2,1,4,0,1,1,1,0
6971864000,6971864000,1032000,41.606704,-86.3556021,-0.6461831,-1.3869274,0.11046771,0.0003608431,0.00019367777,0.0,-0.0016223162,-0.0015844962,6.046049e-05,-0.0011364345,-0.0005769825,-0.01214426,-0.016767275,-0.047320217,-0.017543742,0.26740125,-1.0521436,0.01023155,229.39902,0.100466825,0.08457611,0.10209623,0.014113038,0.010119263,inf,inf,inf,inf,1,1,1,1,2,0,2,1,4,0,1,1,1,0
6971872000,6971872000,1032000,41.606704,-86.3556021,-0.64618707,-1.3869289,0.11045824,0.0003608431,0.00019367777,0.0,-0.0016607259,-0.0014548145,-0.00234477,-0.0035209488,-0.0005769825,-0.01214426,-0.016767275,0.014489832,0.043595295,-0.35491776,-1.0521767,0.01023155,229.39902,0.100451976,0.08457702,0.10205322,0.014711045,0.010559348,inf,inf,inf,inf,1,1,1,1,2,0,2,1,4,0,1,1,1,0
6971880000,6971880000,1032000,41.606704,-86.3556021,-0.64619005,-1.3869293,0.11044038,0.0003608431,0.00019367777,0.0,-0.0014659304,-0.0013622977,-0.0017196395,-0.0028753495,-0.0005769825,-0.01214426,-0.016767275,0.021515394,-0.0018149965,0.14258543,-1.0521932,0.01023155,229.39902,0.10047733,0.08457808,0.10205369,0.015289948,0.010986363,inf,inf,inf,inf,1,1,1,1,2,0,2,1,4,0,1,1,1,0
6971888000,6971888000,1032000,41.606704,-86.3556021,-0.64619076,-1.3869306,0.110439315,0.0003608431,0.00019367777,0.0,-0.0010209534,-0.0015181775,0.0013595202,0.00022403276,-0.0005769825,-0.01214426,-0.016767275,0.072097495,-0.013455859,0.37616205,-1.0521473,0.01023155,229.39902,0.1004809,0.08457931,0.10205422,0.01585337,0.011401773,inf,inf,inf,inf,1,1,1,1,2,0,2,1,4,0,1,1,1,0
6971896000,6971896000,1032000,41.606704,-86.3556021,-0.64618653,-1.3869319,0.11044586,0.0003608431,0.00019367777,0.0,-0.0005053295,-0.0012151388,0.00030265134,-0.0008128597,-0.0005769825,-0.01214426,-0.016767275,0.0139286285,0.06421478,-0.066674374,-1.0521202,0.01023155,229.39902,0.10047981,0.08458074,0.10205485,0.016398277,0.011806804,inf,inf,inf,inf,1,1,1,1,2,0,2,1,4,0,1,1,1,0
6971904000,6971904000,1032000,41.606704,-86.3556021,-0.64618284,-1.3869294,0.11045428,0.0003608431,0.00019367777,0.0,-0.00086168706,-0.0006446167,0.0003910627,-0.00070471724,-0.0005769825,-0.01214426,-0.016767275,-0.026814291,0.071444616,-0.23913294,-1.0521246,0.01023155,229.39902,0.10048165,0.08458236,0.102055565,0.016932225,0.012202491,inf,inf,inf,inf,1,1,1,1,2,0,2,1,4,0,1,1,1,0
6971912000,6971912000,1032000,41.606704,-86.3556021,-0.6461798,-1.3869247,0.11045178,0.0003608431,0.00019367777,0.0,-0.00087614235,-0.0007535722,-0.0010399116,-0.002116205,-0.0005769825,-0.01214426,-0.016767275,-0.03226851,-0.042193566,-0.050719887,-1.05215,0.01023155,229.39902,0.100489445,0.0845842,0.10205637,0.017452693,0.012589715,inf,inf,inf,inf,1,1,1,1,2,0,2,1,4,0,1,1,1,0
6971920000,6971920000,1032000,41.606704,-86.3556021,-0.6461777,-1.3869225,0.1104493,0.0003608431,0.00019367777,0.0,-0.00095283473,-0.0009872871,0.00026911378,-0.00078793644,-0.0005769825,-0.01214426,-0.016767275,-0.00345882,-0.011457367,0.30198872,-1.0521775,0.01023155,229.39902,0.10049091,0.08458626,0.10205727,0.017963028,0.012969234,inf,inf,inf,inf,1,1,1,1,2,0,2,1,4,0,1,1,1,0
6971928000,6971928000,1032000,41.606704,-86.3556021,-0.64617527,-1.3869214,0.1104648,0.0003608431,0.00019367777,0.0,-0.00067076617,-0.0009568896,0.0010651528,2.9460549e-05,-0.0005769825,-0.01214426,-0.016767275,0.060142454,0.022236163,-0.17148541,-1.0521994,0.01023155,229.39902,0.10054763,0.08458857,0.10201493,0.018460317,0.0133417025,inf,inf,inf,inf,1,1,1,1,2,0,2,1,4,0,1,1,1,0
6971936000,6971936000,1032000,41.606704,-86.3556021,-0.6461694,-1.3869191,0.11048036,0.0003608431,0.00019367777,0.0,-0.0003482161,-0.0007324397,0.0017902651,0.0007756061,-0.0005769825,-0.01214426,-0.016767275,0.007645783,0.030715708,0.21516338,-1.0522234,0.01023155,229.39902,0.10053981,0.084591135,0.10201606,0.01894844,0.0137077,inf,inf,inf,inf,1,1,1,1,2,0,2,1,4,0,1,1,1,0
6971944000,6971944000,1032000,41.606704,-86.3556021,-0.6461639,-1.386914,0.11049116,0.0003608431,0.00019367777,0.0,-0.0006123666,-0.00022071568,-0.0008702072,-0.0018641544,-0.0005769825,-0.01214426,-0.016767275,-0.042528033,0.065834686,-0.3611688,-1.0522605,0.01023155,229.39902,0.10054378,0.084593974,0.10201731,0.019427607,0.01406773,inf,inf,inf,inf,1,1,1,1,2,0,2,1,4,0,1,1,1,0
6971952000,6971952000,1032000,41.606704,-86.3556021,-0.646162,-1.386908,0.110499285,0.0003608431,0.00019367777,0.0,-0.0012742534,-0.00058502157,0.0012081016,0.00023454863,-0.0005769825,-0.01214426,-0.016767275,-0.09824406,-0.075622566,0.27667165,-1.0522635,0.01023155,229.39902,0.10054416,0.0845971,0.10201869,0.019901648,0.014422236,inf,inf,inf,inf,1,1,1,1,2,0,2,1,4,0,1,1,1,0
6971960000,6971960000,1032000,41.606704,-86.3556021,-0.6461644,-1.3869056,0.11050615,0.0003608431,0.00019367777,0.0,-0.0015904803,-0.00077252666,-0.0014728877,-0.002426361,-0.0005769825,-0.01214426,-0.016767275,-0.030058257,0.020557916,-0.3629178,-1.0522764,0.01023155,229.39902,0.10053831,0.08460053,0.102020204,0.02036521,0.014771619,inf,inf,inf,inf,1,1,1,1,2,0,2,1,4,0,1,1,1,0
6971968000,6971968000,1032000,41.606704,-86.3556021,-0.6461682,-1.386902,0.11051225,0.0003608431,0.00019367777,0.0,-0.001540401,-0.00048273648,0.0012541132,0.00032040905,-0.0005769825,-0.01214426,-0.016767275,0.026045285,0.031217359,0.39471304,-1.052268,0.01023155,229.39902,0.10054765,0.08460428,0.10202186,0.020819215,0.015116235,inf,inf,inf,inf,1,1,1,1,2,0,2,1,4,0,1,1,1,0
6971976000,6971976000,1032000,41.606704,-86.3556021,-0.64617026,-1.3868945,0.11051763,0.0003608431,0.00019367777,0.0,-0.0011792162,-0.00026565453,0.0001452939,-0.0007837252,-0.0005769825,-0.01214426,-0.016767275,0.023270296,0.030438673,-0.055825397,-1.0522666,0.01023155,229.39902,0.1003299,0.084582016,0.10201182,0.0014142136,0.001,inf,inf,inf,inf,1,1,1,1,2,0,2,1,4,0,1,1,1,0
6971984000,6971984000,1032000,41.606704,-86.3556021,-0.646172,-1.3868858,0.11052396,0.0003608431,0.00019367777,0.0,-0.0013080754,-0.00029602146,0.00022763346,-0.0006966283,-0.0005769825,-0.01214426,-0.016767275,-0.009882862,-0.026198644,-0.2357392,-1.052223,0.01023155,229.39902,0.100323774,0.08458204,0.10201183,0.0042137564,0.002983449,inf,inf,inf,inf,1,1,1,1,2,0,2,1,4,0,1,1,1,0
6971992000,6971992000,1032000,41.606704,-86.3556021,-0.64617413,-1.3868779,0.110522024,0.0003608431,0.00019367777,0.0,-0.001366779,-0.0003570764,0.000105284926,-0.00081380206,-0.0005769825,-0.01214426,-0.016767275,-0.03367641,0.004610475,0.26668042,-1.0522304,0.01023155,229.39902,0.100330986,0.08458206,0.10196854,0.005799829,0.0041111903,inf,inf,inf,inf,1,1,1,1,2,0,2,1,4,0,1,1,1,0
6972000000,6972000000,1032000,41.606704,-86.3556021,-0.64617735,-1.3868709,0.11052886,0.0003608431,0.00019367777,0.0,-0.0013165912,-0.0004840885,0.0001570045,-0.0007568525,-0.0005769825,-0.01214426,-0.016767275,0.040438693,-0.0059901183,-0.2791798,-1.0522163,0.01023155,229.39902,0.10031763,0.0845821,0.10196857,0.007045122,0.0050002765,inf,inf,inf,inf,1,1,1,1,2,0,2,1,4,0,1,1,1,0
6972008000,6972008000,1032000,41.606704,-86.3556021,-0.6461791,-1.3868625,0.11052429,0.0003608431,0.00019367777,0.0,-0.0012542518,-0.00013184664,-0.0003481766,-0.0012567497,-0.0005769825,-0.01214426,-0.016767275,-0.031753827,0.041174795,0.23382244,-1.0521706,0.01023155,229.39902,0.100323685,0.08458217,0.1019686,0.008108737,0.0057622558,inf,inf,inf,inf,1,1,1,1,2,0,2,1,4,0,1,1,1,0
6972016000,6972016000,1032000,41.606704,-86.3556021,-0.64618117,-1.3868531,0.11052764,0.0003608431,0.00019367777,0.0,-0.0015123545,-0.0001826435,-0.00018108984,-0.0010843662,-0.0005769825,-0.01214426,-0.016767275,-0.024542358,-0.021989184,-0.26571476,-1.0522017,0.01023155,229.39902,0.100327276,0.08443141,0.10196865,0.009052835,0.0064417287,inf,inf,inf,inf,1,1,1,1,2,0,2,1,4,0,1,1,1,0
6972024000,6972024000,1032000,41.606704,-86.3556021,-0.6461846,-1.3868456,0.11051738,0.0003608431,0.00019367777,0.0,-0.0015564465,-0.00055405847,-0.001958,-0.0028559288,-0.0005769825,-0.01214426,-0.016767275,-0.00037266046,-0.03838338,-0.06916566,-1.052231,0.01023155,229.39902,0.10033646,0.08443158,0.10196873,0.009917035,0.007063745,inf,inf,inf,inf,1,1,1,1,2,0,2,1,4,0,1,1,1,0
6972032000,6972032000,1032000,41.606704,-86.3556021,-0.6461882,-1.386839,0.11050437,0.0003608431,0.00019367777,0.0,-0.001598918,-0.0004565473,-0.0009394128,-0.0018319451,-0.0005769825,-0.01214426,-0.016767275,-0.024135742,0.014439431,0.25455275,-1.0522345,0.01023155,229.39902,0.100345664,0.08443181,0.10196883,0.010715453,0.0076417997,inf,inf,inf,inf,1,1,1,1,2,0,2,1,4,0,1,1,1,0
6972040000,6972040000,1032000,41.606704,-86.3556021,-0.64619267,-1.3868322,0.11050129,0.0003608431,0.00019367777,0.0,-0.0015506432,-0.0005477851,-0.000942364,-0.0018294529,-0.0005769825,-0.01214426,-0.016767275,0.030849723,-0.019334512,-0.25145808,-1.0522135,0.01023155,229.39902,0.10034214,0.08443213,0.10196897,0.011466208,0.008185211,inf,inf,inf,inf,1,1,1,1,2,0,2,1,4,0,1,1,1,0
6972048000,6972048000,1032000,41.606704,-86.3556021,-0.6461969,-1.3868284,0.11049348,0.0003608431,0.00019367777,0.0,-0.0017280487,-0.0013180454,-0.00066644145,-0.0015476224,-0.0005769825,-0.01214426,-0.016767275,-0.058073387,-0.12531067,0.16560584,-1.052224,0.01023155,229.39902,0.10035625,0.084432535,0.1019259,0.012173034,0.008700469,inf,inf,inf,inf,1,1,1,1,2,0,2,1,4,0,1,1,1,0
6972056000,6972056000,1032000,41.606704,-86.3556021,-0.64620346,-1.3868301,0.11047931,0.0003608431,0.00019367777,0.0,-0.0018023606,-0.0015930964,-0.003016461,-0.0038916848,-0.0005769825,-0.01214426,-0.016767275,0.024141222,0.025305184,-0.29280692,-1.0522368,0.01023155,229.39902,0.100370035,0.08443304,0.101926126,0.012847917,0.009192312,inf,inf,inf,inf,1,1,1,1,2,0,2,1,4,0,1,1,1,0
6972064000,6972064000,1032000,41.606704,-86.3556021,-0.6462099,-1.3868297,0.11046415,0.0003608431,0.00019367777,0.0,-0.0018938723,-0.0011776874,-0.0007157858,-0.0015849851,-0.0005769825,-0.01214426,-0.016767275,-0.040775288,0.021793552,0.3191027,-1.052214,0.01023155,229.39902,0.100380994,0.08443368,0.1019264,0.013493119,0.009664317,inf,inf,inf,inf,1,1,1,1,2,0,2,1,4,0,1,1,1,0
6972072000,6972072000,1032000,41.606704,-86.3556021,-0.64621717,-1.3868289,0.11044963,0.0003608431,0.00019367777,0.0,-0.001757026,-0.0013077612,-0.0031139862,-0.0039770952,-0.0005769825,-0.01214426,-0.016767275,0.03752386,0.00923414,-0.33330083,-1.0521731,0.01023155,229.39902,0.10039149,0.08443444,0.10192673,0.014113471,0.010119259,inf,inf,inf,inf,1,1,1,1,2,0,2,1,4,0,1,1,1,0
6972080000,6972080000,1032000,41.606704,-86.3556021,-0.64622366,-1.386826,0.1104326,0.0003608431,0.00019367777,0.0,-0.0018116648,-0.00083226594,-0.0009702449,-0.0018272005,-0.0005769825,-0.01214426,-0.016767275,-0.024146251,0.04509536,0.309172,-1.0522208,0.01023155,229.39902,0.10040451,0.08443535,0.10192713,0.014711897,0.010559344,inf,inf,inf,inf,1,1,1,1,2,0,2,1,4,0,1,1,1,0
6972088000,6972088000,1032000,41.606704,-86.3556021,-0.64623016,-1.3868214,0.11041693,0.0003608431,0.00019367777,0.0,-0.0015535983,-0.00082754815,-0.0030524887,-0.0039032297,-0.0005769825,-0.01214426,-0.016767275,0.04744557,-0.0039191805,-0.28642642,-1.0522207,0.01023155,229.39902,0.100414686,0.08443642,0.10192759,0.015291514,0.010986355,inf,inf,inf,inf,1,1,1,1,2,0,2,1,4,0,1,1,1,0
6972096000,6972096000,1032000,41.606704,-86.3556021,-0.64623475,-1.3868178,0.11040031,0.0003608431,0.00019367777,0.0,-0.0014146041,-0.001142219,-0.0008956336,-0.0017401013,-0.0005769825,-0.01214426,-0.016767275,1.4393302e-05,-0.047761176,0.30449957,-1.0522251,0.01023155,229.39902,0.100424744,0.08443765,0.10192814,0.015853541,0.011401766,inf,inf,inf,inf,1,1,1,1,2,0,2,1,4,0,1,1,1,0
6972104000,6972104000,1032000,41.606704,-86.3556021,-0.6462393,-1.3868163,0.11038545,0.0003608431,0.00019367777,0.0,-0.0013970054,-0.001315361,-0.0026331923,-0.0034720565,-0.0005769825,-0.01214426,-0.016767275,0.0055227233,-0.014906723,-0.2347399,-1.0522151,0.01023155,229.39902,0.1004042,0.08443908,0.10188557,0.01640176,0.011806798,inf,inf,inf,inf,1,1,1,1,2,0,2,1,4,0,1,1,1,0
6972112000,6972112000,1032000,41.606704,-86.3556021,-0.646244,-1.3868142,0.110371694,0.0003608431,0.00019367777,0.0,-0.0014224822,-0.00095134065,-0.0004268182,-0.0012599984,-0.0005769825,-0.01214426,-0.016767275,-0.0032245845,0.06880544,0.3063911,-1.0522382,0.01023155,229.39902,0.10040252,0.08444071,0.10188628,0.016933966,0.012202485,inf,inf,inf,inf,1,1,1,1,2,0,2,1,4,0,1,1,1,0
6972120000,6972120000,1032000,41.606704,-86.3556021,-0.64624757,-1.3868074,0.11036083,0.0003608431,0.00019367777,0.0,-0.0010439445,-0.00025844952,-0.0016491241,-0.002476543,-0.0005769825,-0.01214426,-0.016767275,0.048372634,0.084229834,-0.0686525,-1.0522442,0.01023155,229.39902,0.100402296,0.08444254,0.101887085,0.01745443,0.01258971,inf,inf,inf,inf,1,1,1,1,2,0,2,1,4,0,1,1,1,0
6972128000,6972128000,1032000,41.606704,-86.3556021,-0.6462505,-1.3867974,0.11035049,0.0003608431,0.00019367777,0.0,-0.0013422598,-0.00022544216,-0.0016293661,-0.0024509488,-0.0005769825,-0.01214426,-0.016767275,-0.06742873,-0.009669722,-0.24552648,-1.0522261,0.01023155,229.39902,0.10040292,0.08444461,0.101888,0.017963225,0.012969232,inf,inf,inf,inf,1,1,1,1,2,0,2,1,4,0,1,1,1,0
6972136000,6972136000,1032000,41.606704,-86.3556021,-0.64625734,-1.3867872,0.11032895,0.0003608431,0.00019367777,0.0,-0.0018082951,-0.000256423,-0.002302111,-0.003117786,-0.0005769825,-0.01214426,-0.016767275,-0.044806667,-0.028036771,0.20247598,-1.052235,0.01023155,229.39902,0.100406714,0.08444692,0.101889014,0.018463848,0.013341704,inf,inf,inf,inf,1,1,1,1,2,0,2,1,4,0,1,1,1,0
6972144000,6972144000,1032000,41.606704,-86.3556021,-0.6462653,-1.3867791,0.11031563,0.0003608431,0.00019367777,0.0,-0.0015345511,-0.00056975184,-0.0017735412,-0.0025832395,-0.0005769825,-0.01214426,-0.016767275,0.056179676,-0.019958641,-0.19763322,-1.0522518,0.01023155,229.39902,0.10040238,0.08444949,0.10189015,0.018950716,0.013707698,inf,inf,inf,inf,1,1,1,1,2,0,2,1,4,0,1,1,1,0
6972152000,6972152000,1032000,41.606704,-86.3556021,-0.64627,-1.3867716,0.11029451,0.0003608431,0.00019367777,0.0,-0.001046556,-0.0005251162,-0.002145265,-0.0029489207,-0.0005769825,-0.01214426,-0.016767275,0.052195672,0.008239782,0.21380365,-1.0522368,0.01023155,229.39902,0.100405686,0.08445234,0.101891406,0.019432947,0.014067727,inf,inf,inf,inf,1,1,1,1,2,0,2,1,4,0,1,1,1,0
6972160000,6972160000,1032000,41.606704,-86.3556021,-0.64627254,-1.3867627,0.11028229,0.0003608431,0.00019367777,0.0,-0.00093392265,-0.00017930556,-0.0019024019,-0.0026988848,-0.0005769825,-0.01214426,-0.016767275,0.00831759,0.0568474,-0.22982997,-1.0521997,0.01023155,229.39902,0.10043268,0.084455475,0.10184963,0.019902732,0.014422231,inf,inf,inf,inf,1,1,1,1,2,0,2,1,4,0,1,1,1,0
6972168000,6972168000,1032000,41.606704,-86.3556021,-0.64627385,-1.3867505,0.11026068,0.0003608431,0.00019367777,0.0,-0.00072540715,0.00019535553,-0.0023346073,-0.003123895,-0.0005769825,-0.01214426,-0.016767275,0.013720195,0.033183854,0.2218689,-1.052194,0.01023155,229.39902,0.10043621,0.08445891,0.10185115,0.020368867,0.014771614,inf,inf,inf,inf,1,1,1,1,2,0,2,1,4,0,1,1,1,0
6972176000,6972176000,1032000,41.606704,-86.3556021,-0.646276,-1.3867368,0.110248655,0.0003608431,0.00019367777,0.0,-0.0010273044,0.00020764288,-0.0016252277,-0.0024072987,-0.0005769825,-0.01214426,-0.016767275,-0.03387392,0.0020844787,-0.16552308,-1.0522056,0.01023155,229.39902,0.1004307,0.084462665,0.10185281,0.020823766,0.015116232,inf,inf,inf,inf,1,1,1,1,2,0,2,1,4,0,1,1,1,0
6972184000,6972184000,1032000,41.606704,-86.3556021,-0.64627385,-1.3867235,0.11023939,0.0003608431,0.00019367777,0.0,-0.0008435841,0.00017970496,-0.0017755221,-0.002532674,-0.0005769825,-0.01214426,-0.016767275,0.00834875,-0.015008079,0.22449431,-1.0522037,0.01023155,229.39902,0.100706145,0.08444034,0.10184276,0.0014142136,0.001,inf,inf,inf,inf,1,1,1,1,2,0,2,1,4,0,1,1,1,0
6972192000,6972192000,1032000,41.606704,-86.3556021,-0.64627016,-1.3867126,0.11024112,0.0003608431,0.00019367777,0.0,-0.00049778994,-0.00030970556,-0.0010270564,-0.0017597206,-0.0005769825,-0.01214426,-0.016767275,0.06930093,-0.06437145,-0.17112964,-1.0521842,0.01023155,229.39902,0.100713305,0.08444036,0.10184277,0.004213301,0.0029834486,inf,inf,inf,inf,1,1,1,1,2,0,2,1,4,0,1,1,1,0
6972200000,6972200000,1032000,41.606704,-86.3556021,-0.6462618,-1.3867043,0.1102372,0.0003608431,0.00019367777,0.0,6.875073e-05,-0.0005090691,-0.001275812,-0.0019844144,-0.0005769825,-0.01214426,-0.016767275,0.038928915,-0.025213353,0.21383531,-1.0521705,0.01023155,229.39902,0.1007304,0.08444039,0.10184278,0.0057991305,0.0041111903,inf,inf,inf,inf,1,1,1,1,2,0,2,1,4,0,1,1,1,0
6972208000,6972208000,1032000,41.606704,-86.3556021,-0.6462517,-1.3866975,0.11024208,0.0003608431,0.00019367777,0.0,6.122249e-05,-0.0005630792,-0.0010053943,-0.0016903548,-0.0005769825,-0.01214426,-0.016767275,-0.0049543483,0.015137795,-0.2452415,-1.0521772,0.01023155,229.39902,0.10073422,0.084440425,0.101842806,0.0070446795,0.0050002756,inf,inf,inf,inf,1,1,1,1,2,0,2,1,4,0,1,1,1,0
6972216000,6972216000,1032000,41.606704,-86.3556021,-0.64623976,-1.3866897,0.11024111,0.0003608431,0.00019367777,0.0,0.00050128705,-0.00039923567,-0.0011423373,-0.001802155,-0.0005769825,-0.01214426,-0.016767275,0.05150882,0.010325403,0.2611847,-1.0522172,0.01023155,229.39902,0.100801475,0.08444049,0.10179975,0.0081087705,0.0057622553,inf,inf,inf,inf,1,1,1,1,2,0,2,1,4,0,1,1,1,0
6972224000,6972224000,1032000,41.606704,-86.3556021,-0.64622426,-1.3866822,0.11025153,0.0003608431,0.00019367777,0.0,0.0005965634,-0.00050016784,-0.00042367817,-0.0010588154,-0.0005769825,-0.01214426,-0.016767275,0.0073107835,0.004040242,-0.18283543,-1.0522403,0.01023155,229.39902,0.100797266,0.08429049,0.1017998,0.009052895,0.006441728,inf,inf,inf,inf,1,1,1,1,2,0,2,1,4,0,1,1,1,0
6972232000,6972232000,1032000,41.606704,-86.3556021,-0.6462074,-1.3866736,0.110257275,0.0003608431,0.00019367777,0.0,0.00070265646,-0.00022355113,-0.00036304857,-0.0009739753,-0.0005769825,-0.01214426,-0.016767275,-0.022859734,0.022461679,0.25512365,-1.0522499,0.01023155,229.39902,0.10079863,0.08429066,0.10179988,0.0099159265,0.007063745,inf,inf,inf,inf,1,1,1,1,2,0,2,1,4,0,1,1,1,0
6972240000,6972240000,1032000,41.606704,-86.3556021,-0.6461913,-1.3866638,0.110274374,0.0003608431,0.00019367777,0.0,0.00066237064,-0.00020109331,0.00030362155,-0.0002835578,-0.0005769825,-0.01214426,-0.016767275,0.02217058,-0.004666454,-0.18033484,-1.0522625,0.01023155,229.39902,0.100788444,0.08429089,0.10179999,0.010715175,0.007641798,inf,inf,inf,inf,1,1,1,1,2,0,2,1,4,0,1,1,1,0
6972248000,6972248000,1032000,41.606704,-86.3556021,-0.6461753,-1.3866541,0.11029151,0.0003608431,0.00019367777,0.0,0.00037889695,-0.00020349269,0.0010560182,0.00049213064,-0.0005769825,-0.01214426,-0.016767275,-0.081745714,-0.0030817296,0.21606398,-1.0522788,0.01023155,229.39902,0.100777745,0.084291205,0.10180012,0.011464603,0.008185207,inf,inf,inf,inf,1,1,1,1,2,0,2,1,4,0,1,1,1,0
6972256000,6972256000,1032000,41.606704,-86.3556021,-0.6461619,-1.3866454,0.11030687,0.0003608431,0.00019367777,0.0,0.00030763395,-0.00031364936,-0.00082060456,-0.001361649,-0.0005769825,-0.01214426,-0.016767275,0.017116811,0.018919256,-0.26567844,-1.0522765,0.01023155,229.39902,0.10077023,0.084291615,0.1018003,0.01217247,0.008700466,inf,inf,inf,inf,1,1,1,1,2,0,2,1,4,0,1,1,1,0
6972264000,6972264000,1032000,41.606704,-86.3556021,-0.646148,-1.3866338,0.110322386,0.0003608431,0.00019367777,0.0,0.0003665452,0.00032992175,0.0012075333,0.000688866,-0.0005769825,-0.01214426,-0.016767275,0.00028998833,0.06590811,0.28198484,-1.0522852,0.01023155,229.39902,0.10076469,0.08429213,0.10180052,0.012846785,0.009192309,inf,inf,inf,inf,1,1,1,1,2,0,2,1,4,0,1,1,1,0
6972272000,6972272000,1032000,41.606704,-86.3556021,-0.6461324,-1.3866192,0.11033956,0.0003608431,0.00019367777,0.0,0.00074379105,0.00043175666,-0.00076193846,-0.0012587118,-0.0005769825,-0.01214426,-0.016767275,0.041876916,0.0113850245,-0.29194358,-1.0522838,0.01023155,229.39902,0.10075938,0.084292755,0.1018008,0.013491551,0.009664316,inf,inf,inf,inf,1,1,1,1,2,0,2,1,4,0,1,1,1,0
6972280000,6972280000,1032000,41.606704,-86.3556021,-0.6461149,-1.3866032,0.11035683,0.0003608431,0.00019367777,0.0,0.00086403266,0.00068659324,0.0012591471,0.0007843462,-0.0005769825,-0.01214426,-0.016767275,0.014528548,0.034057308,0.27765048,-1.052275,0.01023155,229.39902,0.100772716,0.084293514,0.1017581,0.014111996,0.010119258,inf,inf,inf,inf,1,1,1,1,2,0,2,1,4,0,1,1,1,0
6972288000,6972288000,1032000,41.606704,-86.3556021,-0.64609593,-1.3865843,0.11037502,0.0003608431,0.00019367777,0.0,0.0010396007,0.0012252484,-0.000858326,-0.0013116415,-0.0005769825,-0.01214426,-0.016767275,0.0002486561,0.07704769,-0.31200522,-1.0522735,0.01023155,229.39902,0.100767404,0.08429442,0.101758495,0.014710276,0.010559343,inf,inf,inf,inf,1,1,1,1,2,0,2,1,4,0,1,1,1,0
6972296000,6972296000,1032000,41.606704,-86.3556021,-0.64607817,-1.3865616,0.110391185,0.0003608431,0.00019367777,0.0,0.0005994445,0.00150276,0.0009925994,0.0005602908,-0.0005769825,-0.01214426,-0.016767275,-0.06927614,0.019350128,0.26958707,-1.0522512,0.01023155,229.39902,0.100764126,0.08429549,0.101758964,0.015289638,0.010986355,inf,inf,inf,inf,1,1,1,1,2,0,2,1,4,0,1,1,1,0
6972304000,6972304000,1032000,41.606704,-86.3556021,-0.64606196,-1.3865386,0.110407144,0.0003608431,0.00019367777,0.0,0.0008033932,0.0013285124,-0.001313674,-0.0017254457,-0.0005769825,-0.01214426,-0.016767275,0.04309132,-0.029993076,-0.34401757,-1.0522821,0.01023155,229.39902,0.100762874,0.084296726,0.10175951,0.015851246,0.011401765,inf,inf,inf,inf,1,1,1,1,2,0,2,1,4,0,1,1,1,0
6972312000,6972312000,1032000,41.606704,-86.3556021,-0.6460442,-1.3865179,0.110419855,0.0003608431,0.00019367777,0.0,0.0009309029,0.0009647919,0.0005000341,0.00010833703,-0.0005769825,-0.01214426,-0.016767275,0.012193605,-0.055569082,0.27297616,-1.0522438,0.01023155,229.39902,0.10076751,0.08429815,0.101760134,0.016398016,0.011806795,inf,inf,inf,inf,1,1,1,1,2,0,2,1,4,0,1,1,1,0
6972320000,6972320000,1032000,41.606704,-86.3556021,-0.6460245,-1.3864987,0.11043291,0.0003608431,0.00019367777,0.0,0.0013041554,0.0010664751,-0.0016503377,-0.002022414,-0.0005769825,-0.01214426,-0.016767275,0.046636797,0.046649817,-0.32478762,-1.0522151,0.01023155,229.39902,0.10077421,0.08429977,0.10176085,0.016930465,0.012202482,inf,inf,inf,inf,1,1,1,1,2,0,2,1,4,0,1,1,1,0
6972328000,6972328000,1032000,41.606704,-86.3556021,-0.64600205,-1.3864774,0.11044492,0.0003608431,0.00019367777,0.0,0.0015987128,0.0013131998,0.0006832112,0.00033030985,-0.0005769825,-0.01214426,-0.016767275,0.021370199,0.01411588,0.36173958,-1.0521941,0.01023155,229.39902,0.10078715,0.08430162,0.10176166,0.017450266,0.012589704,inf,inf,inf,inf,1,1,1,1,2,0,2,1,4,0,1,1,1,0
6972336000,6972336000,1032000,41.606704,-86.3556021,-0.6459772,-1.3864558,0.11046535,0.0003608431,0.00019367777,0.0,0.0019836659,0.0012030331,-0.00045142986,-0.00078404485,-0.0005769825,-0.01214426,-0.016767275,0.04841807,-0.012451225,-0.19223993,-1.0522194,0.01023155,229.39902,0.100835115,0.08430369,0.10171958,0.017960852,0.012969222,inf,inf,inf,inf,1,1,1,1,2,0,2,1,4,0,1,1,1,0
6972344000,6972344000,1032000,41.606704,-86.3556021,-0.6459517,-1.3864337,0.110482395,0.0003608431,0.00019367777,0.0,0.001676448,0.0014448469,4.6082383e-05,-0.0002667312,-0.0005769825,-0.01214426,-0.016767275,-0.0651167,0.030902479,0.07064168,-1.0522168,0.01023155,229.39902,0.100838214,0.08430601,0.1017206,0.018457633,0.013341689,inf,inf,inf,inf,1,1,1,1,2,0,2,1,4,0,1,1,1,0
6972352000,6972352000,1032000,41.606704,-86.3556021,-0.6459304,-1.3864124,0.11051121,0.0003608431,0.00019367777,0.0,0.0010372092,0.0009409119,0.0025029269,0.0022094392,-0.0005769825,-0.01214426,-0.016767275,-0.086226195,-0.07959165,0.32132298,-1.052192,0.01023155,229.39902,0.10082932,0.08430858,0.101721734,0.01894829,0.013707684,inf,inf,inf,inf,1,1,1,1,2,0,2,1,4,0,1,1,1,0
6972360000,6972360000,1032000,41.606704,-86.3556021,-0.6459123,-1.3863933,0.11054443,0.0003608431,0.00019367777,0.0,0.0009783362,0.0010189455,0.0012139364,0.0009393084,-0.0005769825,-0.01214426,-0.016767275,0.0024312607,0.032160714,-0.12461008,-1.0521389,0.01023155,229.39902,0.1008158,0.084311426,0.10172299,0.019426461,0.014067712,inf,inf,inf,inf,1,1,1,1,2,0,2,1,4,0,1,1,1,0
6972368000,6972368000,1032000,41.606704,-86.3556021,-0.6458946,-1.3863736,0.11057564,0.0003608431,0.00019367777,0.0,0.0009080342,0.0008394525,0.00092379283,0.00066756725,-0.0005769825,-0.01214426,-0.016767275,-0.016768148,-0.04985991,-0.26823306,-1.0520785,0.01023155,229.39902,0.10080349,0.08431456,0.10172438,0.019900221,0.014422217,inf,inf,inf,inf,1,1,1,1,2,0,2,1,4,0,1,1,1,0
6972376000,6972376000,1032000,41.606704,-86.3556021,-0.6458775,-1.3863567,0.110596135,0.0003608431,0.00019367777,0.0,0.00092533295,0.0005841631,0.0007102346,0.00047196317,-0.0005769825,-0.01214426,-0.016767275,0.013727012,0.000119983815,0.28770968,-1.0520352,0.01023155,229.39902,0.10080041,0.084318005,0.1017259,0.020362573,0.014771599,inf,inf,inf,inf,1,1,1,1,2,0,2,1,4,0,1,1,1,0
6972384000,6972384000,1032000,41.606704,-86.3556021,-0.64586025,-1.3863394,0.110629804,0.0003608431,0.00019367777,0.0,0.0008342954,0.0007380348,0.0018066507,0.0015858936,-0.0005769825,-0.01214426,-0.016767275,-0.035723746,0.0001014234,-0.15162122,-1.0520082,0.01023155,229.39902,0.10078194,0.08432176,0.10172756,0.020821815,0.015116216,inf,inf,inf,inf,1,1,1,1,2,0,2,1,4,0,1,1,1,0
6972392000,6972392000,1032000,41.606704,-86.3556021,-0.6458492,-1.3863305,0.11064785,0.0003608431,0.00019367777,0.0,0.0007571024,0.00033229523,0.0003659464,0.0001465861,-0.0005769825,-0.01214426,-0.016767275,0.025321022,-0.04246649,-0.048611373,-1.0519586,0.01023155,229.39902,0.10052668,0.08429943,0.10171749,0.0014142136,0.001,inf,inf,inf,inf,1,1,1,1,2,0,2,1,4,0,1,1,1,0
6972400000,6972400000,1032000,41.606704,-86.3556021,-0.64583594,-1.3863242,0.11066421,0.0003608431,0.00019367777,0.0,0.0013188935,0.00017665455,0.0016158802,0.001397088,-0.0005769825,-0.01214426,-0.016767275,0.058021765,-0.0027303025,0.26563922,-1.0519395,0.01023155,229.39902,0.10047639,0.08429945,0.10167457,0.00421422,0.0029834488,inf,inf,inf,inf,1,1,1,1,2,0,2,1,4,0,1,1,1,0
6972408000,6972408000,1032000,41.606704,-86.3556021,-0.6458217,-1.3863193,0.11069229,0.0003608431,0.00019367777,0.0,0.0010426057,5.686385e-05,0.0020912287,0.0018730109,-0.0005769825,-0.01214426,-0.016767275,-0.06221855,-0.004377564,-0.15563802,-1.0519477,0.01023155,229.39902,0.10043979,0.084299475,0.10167458,0.005799389,0.004111191,inf,inf,inf,inf,1,1,1,1,2,0,2,1,4,0,1,1,1,0
6972416000,6972416000,1032000,41.606704,-86.3556021,-0.6458117,-1.3863156,0.110720456,0.0003608431,0.00019367777,0.0,0.0005193606,-0.000100752106,0.0031429306,0.0029252947,-0.0005769825,-0.01214426,-0.016767275,-0.054309927,-0.0241979,0.266076,-1.0519359,0.01023155,229.39902,0.10040742,0.08429952,0.1016746,0.007045453,0.005000277,inf,inf,inf,inf,1,1,1,1,2,0,2,1,4,0,1,1,1,0
6972424000,6972424000,1032000,41.606704,-86.3556021,-0.64580584,-1.3863142,0.11074718,0.0003608431,0.00019367777,0.0,0.00014199609,-0.00033048072,0.0011506098,0.0009335649,-0.0005769825,-0.01214426,-0.016767275,-0.02707235,-0.012140133,-0.28605762,-1.051918,0.01023155,229.39902,0.100373484,0.08429959,0.10167464,0.008109225,0.0057622558,inf,inf,inf,inf,1,1,1,1,2,0,2,1,4,0,1,1,1,0
6972432000,6972432000,1032000,41.606704,-86.3556021,-0.64580196,-1.3863163,0.11077232,0.0003608431,0.00019367777,0.0,-7.547356e-05,-0.00095320714,0.0031876117,0.0029711898,-0.0005769825,-0.01214426,-0.016767275,-0.050054036,-0.08901275,0.30294985,-1.0519245,0.01023155,229.39902,0.10035264,0.08415034,0.10167469,0.009052601,0.0064417296,inf,inf,inf,inf,1,1,1,1,2,0,2,1,4,0,1,1,1,0
6972440000,6972440000,1032000,41.606704,-86.3556021,-0.6458008,-1.3863236,0.11079901,0.0003608431,0.00019367777,0.0,-0.00023270215,-0.0013441144,0.0013332955,0.0011175068,-0.0005769825,-0.01214426,-0.016767275,0.013760405,-0.019481512,-0.25965464,-1.0518821,0.01023155,229.39902,0.10033438,0.0841505,0.101674765,0.009916093,0.0070637465,inf,inf,inf,inf,1,1,1,1,2,0,2,1,4,0,1,1,1,0
6972448000,6972448000,1032000,41.606704,-86.3556021,-0.6457998,-1.386333,0.11082553,0.0003608431,0.00019367777,0.0,-0.00020541348,-0.0015384064,0.0034993452,0.0032842013,-0.0005769825,-0.01214426,-0.016767275,-0.01611327,-0.021715365,0.29713094,-1.0518913,0.01023155,229.39902,0.10030957,0.08415074,0.10167487,0.010715679,0.0076418007,inf,inf,inf,inf,1,1,1,1,2,0,2,1,4,0,1,1,1,0
6972456000,6972456000,1032000,41.606704,-86.3556021,-0.6458005,-1.3863432,0.11085091,0.0003608431,0.00019367777,0.0,-0.0003942761,-0.0013671265,0.001408386,0.0011918843,-0.0005769825,-0.01214426,-0.016767275,-0.0042059305,0.052938856,-0.28704205,-1.051867,0.01023155,229.39902,0.100220494,0.08415105,0.10163213,0.011465063,0.008185212,inf,inf,inf,inf,1,1,1,1,2,0,2,1,4,0,1,1,1,0
6972464000,6972464000,1032000,41.606704,-86.3556021,-0.645802,-1.386351,0.11087492,0.0003608431,0.00019367777,0.0,-0.00048808157,-0.000973243,0.0036056875,0.0033879122,-0.0005769825,-0.01214426,-0.016767275,-0.029299347,0.046059586,0.3284746,-1.0518501,0.01023155,229.39902,0.10019888,0.08415146,0.10163231,0.012172791,0.00870047,inf,inf,inf,inf,1,1,1,1,2,0,2,1,4,0,1,1,1,0
6972472000,6972472000,1032000,41.606704,-86.3556021,-0.6458049,-1.3863577,0.11090032,0.0003608431,0.00019367777,0.0,-0.00043646872,-0.0010053926,0.0013371417,0.0011181979,-0.0005769825,-0.01214426,-0.016767275,0.036919687,-0.010080415,-0.35319668,-1.0518235,0.01023155,229.39902,0.10017445,0.08415197,0.101632535,0.012847881,0.009192316,inf,inf,inf,inf,1,1,1,1,2,0,2,1,4,0,1,1,1,0
6972480000,6972480000,1032000,41.606704,-86.3556021,-0.64580506,-1.386365,0.11091285,0.0003608431,0.00019367777,0.0,0.00015178749,-0.00096182036,0.00088769547,0.0006677083,-0.0005769825,-0.01214426,-0.016767275,0.071823046,0.03199012,-0.019844685,-1.0517797,0.01023155,229.39902,0.100162424,0.0841526,0.10163281,0.013492312,0.00966432,inf,inf,inf,inf,1,1,1,1,2,0,2,1,4,0,1,1,1,0
6972488000,6972488000,1032000,41.606704,-86.3556021,-0.6458044,-1.3863714,0.11092999,0.0003608431,0.00019367777,0.0,-0.0002122833,-0.00091225625,0.0025713535,0.002350446,-0.0005769825,-0.01214426,-0.016767275,-0.070315994,-0.020558577,0.23969908,-1.0517612,0.01023155,229.39902,0.10015304,0.08415336,0.10163315,0.014112218,0.010119262,inf,inf,inf,inf,1,1,1,1,2,0,2,1,4,0,1,1,1,0
6972496000,6972496000,1032000,41.606704,-86.3556021,-0.6458065,-1.3863791,0.11094546,0.0003608431,0.00019367777,0.0,-0.00024833018,-0.0009629723,0.00024404388,2.2337019e-05,-0.0005769825,-0.01214426,-0.016767275,0.024355996,0.03490583,-0.33350852,-1.0517619,0.01023155,229.39902,0.10015176,0.08415427,0.10163354,0.014709896,0.010559347,inf,inf,inf,inf,1,1,1,1,2,0,2,1,4,0,1,1,1,0
6972504000,6972504000,1032000,41.606704,-86.3556021,-0.64580774,-1.3863865,0.1109546,0.0003608431,0.00019367777,0.0,-0.00011073761,-0.0010117659,0.0018444854,0.0016203701,-0.0005769825,-0.01214426,-0.016767275,-0.002752049,-0.021959664,0.24443857,-1.0517765,0.01023155,229.39902,0.1000994,0.08415534,0.10159119,0.015290534,0.010986362,inf,inf,inf,inf,1,1,1,1,2,0,2,1,4,0,1,1,1,0
6972512000,6972512000,1032000,41.606704,-86.3556021,-0.64581096,-1.3863953,0.11096185,0.0003608431,0.00019367777,0.0,-0.0005403206,-0.0011026848,-0.0005084984,-0.00073484477,-0.0005769825,-0.01214426,-0.016767275,-0.050023414,0.01457195,-0.3331192,-1.0517797,0.01023155,229.39902,0.100103416,0.08415658,0.10159173,0.015851123,0.011401775,inf,inf,inf,inf,1,1,1,1,2,0,2,1,4,0,1,1,1,0
6972520000,6972520000,1032000,41.606704,-86.3556021,-0.645816,-1.3864028,0.11095761,0.0003608431,0.00019367777,0.0,-0.0005292262,-0.00077199086,-0.00064999145,-0.00087839563,-0.0005769825,-0.01214426,-0.016767275,0.004742093,0.03292186,0.024519796,-1.0518214,0.01023155,229.39902,0.10011996,0.08415801,0.101592354,0.016399335,0.011806809,inf,inf,inf,inf,1,1,1,1,2,0,2,1,4,0,1,1,1,0
6972528000,6972528000,1032000,41.606704,-86.3556021,-0.6458238,-1.3864101,0.11096079,0.0003608431,0.00019367777,0.0,-0.001135979,-0.0009773578,0.0013347516,0.0011044587,-0.0005769825,-0.01214426,-0.016767275,-0.074098006,-0.016700631,0.2755615,-1.0518111,0.01023155,229.39902,0.100130625,0.08415964,0.10159307,0.016930541,0.012202497,inf,inf,inf,inf,1,1,1,1,2,0,2,1,4,0,1,1,1,0
6972536000,6972536000,1032000,41.606704,-86.3556021,-0.64583385,-1.3864186,0.11096634,0.0003608431,0.00019367777,0.0,-0.000997208,-0.0011326622,-0.00028720044,-0.000519217,-0.0005769825,-0.01214426,-0.016767275,0.0286431,-0.03306805,-0.2439069,-1.0518041,0.01023155,229.39902,0.10013951,0.08416148,0.10159388,0.01745264,0.012589718,inf,inf,inf,inf,1,1,1,1,2,0,2,1,4,0,1,1,1,0
6972544000,6972544000,1032000,41.606704,-86.3556021,-0.6458437,-1.3864295,0.11097156,0.0003608431,0.00019367777,0.0,-0.0010625205,-0.0014052014,0.0016087472,0.0013751681,-0.0005769825,-0.01214426,-0.016767275,-0.011333666,-0.012987169,0.27544138,-1.0518245,0.01023155,229.39902,0.10014946,0.08416356,0.10159479,0.017959714,0.012969232,inf,inf,inf,inf,1,1,1,1,2,0,2,1,4,0,1,1,1,0
6972552000,6972552000,1032000,41.606704,-86.3556021,-0.6458537,-1.3864425,0.1109777,0.0003608431,0.00019367777,0.0,-0.000963063,-0.0016564593,-0.00029256905,-0.0005275535,-0.0005769825,-0.01214426,-0.016767275,0.01352759,-0.023931304,-0.2691653,-1.0518361,0.01023155,229.39902,0.10015849,0.08416588,0.10159581,0.018460153,0.0133417025,inf,inf,inf,inf,1,1,1,1,2,0,2,1,4,0,1,1,1,0
6972560000,6972560000,1032000,41.606704,-86.3556021,-0.64586425,-1.3864568,0.11097621,0.0003608431,0.00019367777,0.0,-0.0011883759,-0.0017835655,-2.0389916e-05,-0.00025662626,-0.0005769825,-0.01214426,-0.016767275,-0.04253879,-0.02221856,0.06489542,-1.0518208,0.01023155,229.39902,0.10016457,0.08416846,0.101596944,0.018949402,0.013707696,inf,inf,inf,inf,1,1,1,1,2,0,2,1,4,0,1,1,1,0
6972568000,6972568000,1032000,41.606704,-86.3556021,-0.64587843,-1.3864727,0.110982805,0.0003608431,0.00019367777,0.0,-0.0016768888,-0.0018873955,0.0019095206,0.0016713087,-0.0005769825,-0.01214426,-0.016767275,-0.044037856,0.0114353625,0.25595996,-1.0518154,0.01023155,229.39902,0.10014048,0.08417131,0.10155543,0.019427827,0.014067723,inf,inf,inf,inf,1,1,1,1,2,0,2,1,4,0,1,1,1,0
6972576000,6972576000,1032000,41.606704,-86.3556021,-0.6458952,-1.3864878,0.11099086,0.0003608431,0.00019367777,0.0,-0.001846535,-0.0017486055,0.00014881571,-9.119501e-05,-0.0005769825,-0.01214426,-0.016767275,-0.019443184,0.010052255,-0.26125,-1.0517983,0.01023155,229.39902,0.10013991,0.084174454,0.101556815,0.01990173,0.01442223,inf,inf,inf,inf,1,1,1,1,2,0,2,1,4,0,1,1,1,0
6972584000,6972584000,1032000,41.606704,-86.3556021,-0.645913,-1.3865044,0.11099164,0.0003608431,0.00019367777,0.0,-0.0018382559,-0.00220489,0.00045672397,0.00021508652,-0.0005769825,-0.01214426,-0.016767275,0.009564668,-0.056607824,0.08570769,-1.051774,0.01023155,229.39902,0.10014394,0.0841779,0.101558335,0.020364283,0.014771614,inf,inf,inf,inf,1,1,1,1,2,0,2,1,4,0,1,1,1,0
6972592000,6972592000,1032000,41.606704,-86.3556021,-0.64593047,-1.3865243,0.111003265,0.0003608431,0.00019367777,0.0,-0.0017892414,-0.0026324317,0.0026469738,0.0024038777,-0.0005769825,-0.01214426,-0.016767275,0.00081744517,-0.06325629,0.263011,-1.0517681,0.01023155,229.39902,0.10013437,0.08418166,0.101560004,0.020823553,0.015116231,inf,inf,inf,inf,1,1,1,1,2,0,2,1,4,0,1,1,1,0
6972600000,6972600000,1032000,41.606704,-86.3556021,-0.6459414,-1.386544,0.1110191,0.0003608431,0.00019367777,0.0,-0.0011835471,-0.0025645862,0.0006659301,0.00042794095,-0.0005769825,-0.01214426,-0.016767275,0.10581792,0.052402392,-0.27925897,-1.0517738,0.01023155,229.39902,0.10021291,0.084159285,0.10154992,0.0014142136,0.001,inf,inf,inf,inf,1,1,1,1,2,0,2,1,4,0,1,1,1,0
6972608000,6972608000,1032000,41.606704,-86.3556021,-0.64594746,-1.3865613,0.11103354,0.0003608431,0.00019367777,0.0,-0.00094723725,-0.0022999863,0.002525835,0.0022929495,-0.0005769825,-0.01214426,-0.016767275,-0.03147524,0.018901693,0.26612255,-1.0517883,0.01023155,229.39902,0.10020652,0.08415931,0.10154993,0.0042133564,0.0029834497,inf,inf,inf,inf,1,1,1,1,2,0,2,1,4,0,1,1,1,0
6972616000,6972616000,1032000,41.606704,-86.3556021,-0.64595467,-1.386577,0.111049704,0.0003608431,0.00019367777,0.0,-0.0010863133,-0.0021334817,0.00084845367,0.00062066654,-0.0005769825,-0.01214426,-0.016767275,0.025483105,0.020916611,-0.23081903,-1.051798,0.01023155,229.39902,0.100200124,0.08415933,0.101549946,0.0057992837,0.0041111913,inf,inf,inf,inf,1,1,1,1,2,0,2,1,4,0,1,1,1,0
6972624000,6972624000,1032000,41.606704,-86.3556021,-0.64595985,-1.3865913,0.11105877,0.0003608431,0.00019367777,0.0,-0.0007952113,-0.0020582725,0.00081929815,0.0005965093,-0.0005769825,-0.01214426,-0.016767275,-0.00618433,-0.0030516512,-0.004155624,-1.0517421,0.01023155,229.39902,0.10019928,0.084159374,0.10150725,0.0070442497,0.0050002784,inf,inf,inf,inf,1,1,1,1,2,0,2,1,4,0,1,1,1,0
6972632000,6972632000,1032000,41.606704,-86.3556021,-0.64596444,-1.3866057,0.111074984,0.0003608431,0.00019367777,0.0,-0.0007035513,-0.0021162382,0.0026935092,0.0024757134,-0.0005769825,-0.01214426,-0.016767275,0.030369325,0.0091763055,0.2566352,-1.0517476,0.01023155,229.39902,0.100194424,0.08415944,0.101507284,0.008108766,0.0057622585,inf,inf,inf,inf,1,1,1,1,2,0,2,1,4,0,1,1,1,0
6972640000,6972640000,1032000,41.606704,-86.3556021,-0.645966,-1.3866183,0.11109262,0.0003608431,0.00019367777,0.0,-0.00013424874,-0.0017852978,0.00085470884,0.00064189086,-0.0005769825,-0.01214426,-0.016767275,0.07659249,0.05649647,-0.27808645,-1.0517532,0.01023155,229.39902,0.10018184,0.08401093,0.101507336,0.009053029,0.006441733,inf,inf,inf,inf,1,1,1,1,2,0,2,1,4,0,1,1,1,0
6972648000,6972648000,1032000,41.606704,-86.3556021,-0.6459628,-1.3866278,0.11110222,0.0003608431,0.00019367777,0.0,0.00036264732,-0.0016075929,0.001015108,0.0008072596,-0.0005769825,-0.01214426,-0.016767275,0.0487799,-0.007277174,0.06409262,-1.0517044,0.01023155,229.39902,0.10018638,0.08401109,0.10150741,0.009914985,0.0070637516,inf,inf,inf,inf,1,1,1,1,2,0,2,1,4,0,1,1,1,0
6972656000,6972656000,1032000,41.606704,-86.3556021,-0.64595777,-1.3866372,0.11112054,0.0003608431,0.00019367777,0.0,0.0003011978,-0.001605408,0.0027445655,0.002541677,-0.0005769825,-0.01214426,-0.016767275,-0.022922557,0.012849002,0.19675858,-1.051707,0.01023155,229.39902,0.1001831,0.08401133,0.101507515,0.01071519,0.0076418044,inf,inf,inf,inf,1,1,1,1,2,0,2,1,4,0,1,1,1,0
6972664000,6972664000,1032000,41.606704,-86.3556021,-0.64595276,-1.3866452,0.11113901,0.0003608431,0.00019367777,0.0,0.00039487786,-0.0012975499,0.0014474529,0.0012495134,-0.0005769825,-0.01214426,-0.016767275,0.011521903,0.050814986,-0.07201737,-1.0516843,0.01023155,229.39902,0.10017409,0.084011644,0.10150766,0.011464208,0.008185216,inf,inf,inf,inf,1,1,1,1,2,0,2,1,4,0,1,1,1,0
6972672000,6972672000,1032000,41.606704,-86.3556021,-0.64594626,-1.3866504,0.11115719,0.0003608431,0.00019367777,0.0,0.0006222472,-0.0010786896,0.0013487427,0.0011557394,-0.0005769825,-0.01214426,-0.016767275,0.022256795,0.014244851,-0.24388176,-1.0516646,0.01023155,229.39902,0.1001756,0.08401205,0.101507835,0.012171213,0.008700478,inf,inf,inf,inf,1,1,1,1,2,0,2,1,4,0,1,1,1,0
6972680000,6972680000,1032000,41.606704,-86.3556021,-0.6459386,-1.386655,0.11116546,0.0003608431,0.00019367777,0.0,0.00076110265,-0.0010824407,0.00095631497,0.0007682252,-0.0005769825,-0.01214426,-0.016767275,0.032182828,0.011066401,0.22546381,-1.0516832,0.01023155,229.39902,0.10018792,0.08401257,0.10150806,0.012846542,0.009192321,inf,inf,inf,inf,1,1,1,1,2,0,2,1,4,0,1,1,1,0
6972688000,6972688000,1032000,41.606704,-86.3556021,-0.645928,-1.3866575,0.111182965,0.0003608431,0.00019367777,0.0,0.0011414582,-0.0007448808,0.0013867988,0.0012036358,-0.0005769825,-0.01214426,-0.016767275,0.01616627,0.024122598,-0.2260758,-1.0517035,0.01023155,229.39902,0.100191884,0.084013194,0.10146567,0.013490535,0.009664324,inf,inf,inf,inf,1,1,1,1,2,0,2,1,4,0,1,1,1,0
6972696000,6972696000,1032000,41.606704,-86.3556021,-0.6459166,-1.3866585,0.11118963,0.0003608431,0.00019367777,0.0,0.0011171935,-0.0006060006,1.9689105e-05,-0.00015858281,-0.0005769825,-0.01214426,-0.016767275,0.0056494116,0.03616268,0.0012218319,-1.0517101,0.01023155,229.39902,0.1002059,0.084013954,0.10146601,0.014111852,0.010119266,inf,inf,inf,inf,1,1,1,1,2,0,2,1,4,0,1,1,1,0
6972704000,6972704000,1032000,41.606704,-86.3556021,-0.6459042,-1.3866577,0.11119684,0.0003608431,0.00019367777,0.0,0.0013332801,-0.0003465448,0.0006664609,0.000493044,-0.0005769825,-0.01214426,-0.016767275,0.027540244,0.042137075,0.04780286,-1.051718,0.01023155,229.39902,0.10021246,0.08401487,0.1014664,0.0147103015,0.010559349,inf,inf,inf,inf,1,1,1,1,2,0,2,1,4,0,1,1,1,0
6972712000,6972712000,1032000,41.606704,-86.3556021,-0.64589024,-1.3866532,0.11121273,0.0003608431,0.00019367777,0.0,0.0014714738,0.0001302863,0.0022772395,0.0021086407,-0.0005769825,-0.01214426,-0.016767275,0.010729989,0.03202114,0.1988252,-1.051722,0.01023155,229.39902,0.100217625,0.084015936,0.10146687,0.015288141,0.010986363,inf,inf,inf,inf,1,1,1,1,2,0,2,1,4,0,1,1,1,0
6972720000,6972720000,1032000,41.606704,-86.3556021,-0.6458739,-1.3866473,0.11122681,0.0003608431,0.00019367777,0.0,0.0019861197,0.00010494544,0.00015478843,-9.029389e-06,-0.0005769825,-0.01214426,-0.016767275,0.07802981,0.008814898,-0.27619585,-1.0517168,0.01023155,229.39902,0.10022466,0.08401718,0.101467416,0.015851595,0.01140177,inf,inf,inf,inf,1,1,1,1,2,0,2,1,4,0,1,1,1,0
6972728000,6972728000,1032000,41.606704,-86.3556021,-0.6458533,-1.3866402,0.1112323,0.0003608431,0.00019367777,0.0,0.0023490419,0.00038320763,0.00018748602,2.8411217e-05,-0.0005769825,-0.01214426,-0.016767275,0.010061288,0.039042033,0.016729282,-1.0516828,0.01023155,229.39902,0.10023349,0.08401861,0.10146805,0.016398262,0.0118068,inf,inf,inf,inf,1,1,1,1,2,0,2,1,4,0,1,1,1,0
6972736000,6972736000,1032000,41.606704,-86.3556021,-0.64583296,-1.3866315,0.11124667,0.0003608431,0.00019367777,0.0,0.002034416,0.00031056002,0.0024143818,0.0022600114,-0.0005769825,-0.01214426,-0.016767275,-0.03968323,-0.039389607,0.30767444,-1.0516521,0.01023155,229.39902,0.10024092,0.08402024,0.101468764,0.016929822,0.012202486,inf,inf,inf,inf,1,1,1,1,2,0,2,1,4,0,1,1,1,0
6972744000,6972744000,1032000,41.606704,-86.3556021,-0.6458148,-1.3866256,0.11126869,0.0003608431,0.00019367777,0.0,0.0018077481,-0.00012754988,0.00076259143,0.0006166217,-0.0005769825,-0.01214426,-0.016767275,-0.03025484,-0.02302612,-0.26845005,-1.0516033,0.01023155,229.39902,0.10035906,0.08402209,0.10142696,0.017451279,0.012589708,inf,inf,inf,inf,1,1,1,1,2,0,2,1,4,0,1,1,1,0
6972752000,6972752000,1032000,41.606704,-86.3556021,-0.6457985,-1.3866204,0.11128253,0.0003608431,0.00019367777,0.0,0.0015203791,-7.2331735e-05,0.0008081725,0.0006704315,-0.0005769825,-0.01214426,-0.016767275,-0.04571421,-0.010651853,0.04625221,-1.0515708,0.01023155,229.39902,0.10036299,0.08402417,0.101427875,0.01796034,0.012969225,inf,inf,inf,inf,1,1,1,1,2,0,2,1,4,0,1,1,1,0
6972760000,6972760000,1032000,41.606704,-86.3556021,-0.6457847,-1.3866148,0.111305684,0.0003608431,0.00019367777,0.0,0.0013189437,-8.644281e-06,0.0029365928,0.002806912,-0.0005769825,-0.01214426,-0.016767275,-0.0054633175,0.011507751,0.2757608,-1.0515511,0.01023155,229.39902,0.100355566,0.08402649,0.101428896,0.018459188,0.013341694,inf,inf,inf,inf,1,1,1,1,2,0,2,1,4,0,1,1,1,0
6972768000,6972768000,1032000,41.606704,-86.3556021,-0.645769,-1.3866102,0.11133084,0.0003608431,0.00019367777,0.0,0.001939106,-0.0003659812,0.0011865007,0.0010647145,-0.0005769825,-0.01214426,-0.016767275,0.08466506,-0.04971289,-0.24900404,-1.0515547,0.01023155,229.39902,0.10034622,0.08402907,0.10143003,0.018947681,0.013707689,inf,inf,inf,inf,1,1,1,1,2,0,2,1,4,0,1,1,1,0
6972776000,6972776000,1032000,41.606704,-86.3556021,-0.64574873,-1.3866079,0.111350246,0.0003608431,0.00019367777,0.0,0.0023284685,-0.00064202165,0.0015997875,0.0014857339,-0.0005769825,-0.01214426,-0.016767275,0.018258277,-0.030876208,0.05127949,-1.0515325,0.01023155,229.39902,0.100338794,0.084031925,0.101431295,0.019428914,0.014067717,inf,inf,inf,inf,1,1,1,1,2,0,2,1,4,0,1,1,1,0
6972784000,6972784000,1032000,41.606704,-86.3556021,-0.645728,-1.3866073,0.11137792,0.0003608431,0.00019367777,0.0,0.0022244598,-0.0008492397,0.0033628326,0.0032563524,-0.0005769825,-0.01214426,-0.016767275,0.0011292081,-0.035189964,0.2453131,-1.0515008,0.01023155,229.39902,0.10032014,0.084035076,0.10143268,0.019900072,0.014422223,inf,inf,inf,inf,1,1,1,1,2,0,2,1,4,0,1,1,1,0
6972792000,6972792000,1032000,41.606704,-86.3556021,-0.6457057,-1.3866087,0.11140541,0.0003608431,0.00019367777,0.0,0.0026809426,-0.0010211886,0.0012552164,0.0011561536,-0.0005769825,-0.01214426,-0.016767275,0.058302425,0.0118022915,-0.31454864,-1.0514891,0.01023155,229.39902,0.10031063,0.084038526,0.10143421,0.020362629,0.014771604,inf,inf,inf,inf,1,1,1,1,2,0,2,1,4,0,1,1,1,0
6972800000,6972800000,1032000,41.606704,-86.3556021,-0.64567983,-1.3866085,0.11142436,0.0003608431,0.00019367777,0.0,0.0031428714,-0.0006902341,0.0016589138,0.0015671155,-0.0005769825,-0.01214426,-0.016767275,0.06457618,0.019955808,0.105555095,-1.0514964,0.01023155,229.39902,0.100307554,0.084042296,0.10143587,0.020821674,0.015116219,inf,inf,inf,inf,1,1,1,1,2,0,2,1,4,0,1,1,1,0
6972808000,6972808000,1032000,41.606704,-86.3556021,-0.6456593,-1.386613,0.11145241,0.0003608431,0.00019367777,0.0,0.0031316918,-0.00089035695,0.0039623547,0.0038721953,-0.0005769825,-0.01214426,-0.016767275,-0.027222676,-0.021722402,0.3007603,-1.0515285,0.01023155,229.39902,0.100206785,0.0840199,0.10138321,0.0014142136,0.001,inf,inf,inf,inf,1,1,1,1,2,0,2,1,4,0,1,1,1,0
6972816000,6972816000,1032000,41.606704,-86.3556021,-0.64563847,-1.3866181,0.111485526,0.0003608431,0.00019367777,0.0,0.0036620463,-0.0007734036,0.0026620405,0.002573507,-0.0005769825,-0.01214426,-0.016767275,0.118937,0.03344117,-0.22698198,-1.0515152,0.01023155,229.39902,0.10018253,0.08401992,0.101383224,0.0042133066,0.0029834493,inf,inf,inf,inf,1,1,1,1,2,0,2,1,4,0,1,1,1,0
6972824000,6972824000,1032000,41.606704,-86.3556021,-0.64561325,-1.3866231,0.11151025,0.0003608431,0.00019367777,0.0,0.00399478,-0.0008972409,0.002333387,0.0022464676,-0.0005769825,-0.01214426,-0.016767275,0.009655916,-0.016035002,-0.002265971,-1.0515321,0.01023155,229.39902,0.100168854,0.084019944,0.10138323,0.005799261,0.0041111927,inf,inf,inf,inf,1,1,1,1,2,0,2,1,4,0,1,1,1,0
6972832000,6972832000,1032000,41.606704,-86.3556021,-0.64558846,-1.386628,0.11154225,0.0003608431,0.00019367777,0.0,0.003862202,-0.0006470296,0.004476076,0.0043907594,-0.0005769825,-0.01214426,-0.016767275,-0.0024505137,0.04795976,0.29491997,-1.0515571,0.01023155,229.39902,0.10014138,0.08401999,0.101383254,0.007044868,0.005000279,inf,inf,inf,inf,1,1,1,1,2,0,2,1,4,0,1,1,1,0
6972840000,6972840000,1032000,41.606704,-86.3556021,-0.6455644,-1.3866311,0.111577176,0.0003608431,0.00019367777,0.0,0.003935511,-0.00043615754,0.002841245,0.002757521,-0.0005769825,-0.01214426,-0.016767275,0.02275472,0.035377137,-0.24487175,-1.0515362,0.01023155,229.39902,0.10011957,0.084020056,0.10138329,0.008107917,0.005762259,inf,inf,inf,inf,1,1,1,1,2,0,2,1,4,0,1,1,1,0
6972848000,6972848000,1032000,41.606704,-86.3556021,-0.64553887,-1.3866327,0.11160434,0.0003608431,0.00019367777,0.0,0.0043669874,-0.00030982392,0.0027546568,0.002672516,-0.0005769825,-0.01214426,-0.016767275,0.076622926,-0.0003451841,-0.009735177,-1.051515,0.01023155,229.39902,0.10010692,0.08402017,0.10138334,0.009055029,0.0064423922,inf,inf,inf,inf,1,1,1,1,2,0,2,1,4,0,1,1,1,0
6972856000,6972856000,1032000,41.606704,-86.3556021,-0.6455119,-1.386635,0.11163733,0.0003608431,0.00019367777,0.0,0.0041297916,-0.0004699339,0.0044741374,0.0043935706,-0.0005769825,-0.01214426,-0.016767275,-0.07686201,0.00138076,0.2489946,-1.0514905,0.01023155,229.39902,0.100083,0.08402034,0.10138342,0.0099175535,0.0070643597,inf,inf,inf,inf,1,1,1,1,2,0,2,1,4,0,1,1,1,0
6972864000,6972864000,1032000,41.606704,-86.3556021,-0.6454893,-1.386638,0.11167299,0.0003608431,0.00019367777,0.0,0.0037096494,-0.00060229347,0.002238222,0.002162802,-0.0005769825,-0.01214426,-0.016767275,-0.020081429,-0.033529602,-0.32760674,-1.0515206,0.01023155,229.39902,0.10017691,0.08402057,0.10134102,0.010715895,0.0076423753,inf,inf,inf,inf,1,1,1,1,2,0,2,1,4,0,1,1,1,0
6972872000,6972872000,1032000,41.606704,-86.3556021,-0.64546853,-1.3866433,0.11169697,0.0003608431,0.00019367777,0.0,0.0037292852,-0.0007978521,0.002000289,0.0019298812,-0.0005769825,-0.01214426,-0.016767275,0.024270099,0.0027386833,0.014225889,-1.0515724,0.01023155,229.39902,0.10016911,0.08402089,0.10134115,0.011466094,0.0081857545,inf,inf,inf,inf,1,1,1,1,2,0,2,1,4,0,1,1,1,0
6972880000,6972880000,1032000,41.606704,-86.3556021,-0.645449,-1.3866496,0.11172804,0.0003608431,0.00019367777,0.0,0.0033047681,-0.0010263781,0.0039762384,0.0039107124,-0.0005769825,-0.01214426,-0.016767275,-0.08103132,-0.04276792,0.26642153,-1.0516039,0.01023155,229.39902,0.10014732,0.0840213,0.10134133,0.012174073,0.008700986,inf,inf,inf,inf,1,1,1,1,2,0,2,1,4,0,1,1,1,0
6972888000,6972888000,1032000,41.606704,-86.3556021,-0.6454344,-1.3866574,0.111760676,0.0003608431,0.00019367777,0.0,0.0027492864,-0.0009187386,0.002193364,0.0021326016,-0.0005769825,-0.01214426,-0.016767275,-0.061503477,0.04775577,-0.27009848,-1.0516026,0.01023155,229.39902,0.10013482,0.08402181,0.10134156,0.012846758,0.009192809,inf,inf,inf,inf,1,1,1,1,2,0,2,1,4,0,1,1,1,0
6972896000,6972896000,1032000,41.606704,-86.3556021,-0.6454236,-1.386662,0.11178455,0.0003608431,0.00019367777,0.0,0.0026153394,-0.00032860183,0.002165791,0.0021096864,-0.0005769825,-0.01214426,-0.016767275,0.03126687,0.080287695,0.026230635,-1.0515618,0.01023155,229.39902,0.10013528,0.08402244,0.101341836,0.013492676,0.009664794,inf,inf,inf,inf,1,1,1,1,2,0,2,1,4,0,1,1,1,0
6972904000,6972904000,1032000,41.606704,-86.3556021,-0.6454126,-1.386664,0.11181007,0.0003608431,0.00019367777,0.0,0.0026020845,-0.00039419156,0.0026416432,0.0025900938,-0.0005769825,-0.01214426,-0.016767275,-0.021459142,-0.043969255,0.08320336,-1.0515565,0.01023155,229.39902,0.10012774,0.0840232,0.10134217,0.014113054,0.010119721,inf,inf,inf,inf,1,1,1,1,2,0,2,1,4,0,1,1,1,0
6972912000,6972912000,1032000,41.606704,-86.3556021,-0.64540327,-1.3866705,0.11184726,0.0003608431,0.00019367777,0.0,0.0024000823,-0.0011993668,0.0051166187,0.0050695254,-0.0005769825,-0.01214426,-0.016767275,-0.024434382,-0.08208563,0.32800615,-1.0515246,0.01023155,229.39902,0.10011598,0.08402412,0.10134257,0.014709885,0.010559789,inf,inf,inf,inf,1,1,1,1,2,0,2,1,4,0,1,1,1,0
6972920000,6972920000,1032000,41.606704,-86.3556021,-0.64539486,-1.3866794,0.11189034,0.0003608431,0.00019367777,0.0,0.0025723085,-0.0009809826,0.003922588,0.0038798547,-0.0005769825,-0.01214426,-0.016767275,0.053884324,0.054701623,-0.19371328,-1.0515097,0.01023155,229.39902,0.10010051,0.08402518,0.101343036,0.015290159,0.010986788,inf,inf,inf,inf,1,1,1,1,2,0,2,1,4,0,1,1,1,0
6972928000,6972928000,1032000,41.606704,-86.3556021,-0.64538485,-1.3866856,0.111928284,0.0003608431,0.00019367777,0.0,0.0026816495,-0.00067116885,0.004360775,0.0043214164,-0.0005769825,-0.01214426,-0.016767275,-0.00022610814,0.030069247,0.072495945,-1.0514969,0.01023155,229.39902,0.100055575,0.084026426,0.101301126,0.015852269,0.011402186,inf,inf,inf,inf,1,1,1,1,2,0,2,1,4,0,1,1,1,0
6972936000,6972936000,1032000,41.606704,-86.3556021,-0.64537483,-1.3866923,0.1119752,0.0003608431,0.00019367777,0.0,0.002755088,-0.0010867531,0.006175133,0.0061390908,-0.0005769825,-0.01214426,-0.016767275,0.019341357,-0.06279939,0.23667787,-1.0514913,0.01023155,229.39902,0.100036256,0.08402786,0.10130176,0.016397627,0.011807207,inf,inf,inf,inf,1,1,1,1,2,0,2,1,4,0,1,1,1,0
6972944000,6972944000,1032000,41.606704,-86.3556021,-0.6453639,-1.3867024,0.112023264,0.0003608431,0.00019367777,0.0,0.0030273527,-0.0013869349,0.004468183,0.004435401,-0.0005769825,-0.01214426,-0.016767275,0.059179574,-0.016425792,-0.25971237,-1.0514818,0.01023155,229.39902,0.10001388,0.08402949,0.101302475,0.016932273,0.012202884,inf,inf,inf,inf,1,1,1,1,2,0,2,1,4,0,1,1,1,0
6972952000,6972952000,1032000,41.606704,-86.3556021,-0.6453504,-1.3867124,0.112063035,0.0003608431,0.00019367777,0.0,0.0033353916,-0.0011478567,0.0045542717,0.004524695,-0.0005769825,-0.01214426,-0.016767275,0.03125033,0.024882838,0.06894295,-1.0514522,0.01023155,229.39902,0.1,0.084031336,0.10130329,0.017452842,0.0125901,inf,inf,inf,inf,1,1,1,1,2,0,2,1,4,0,1,1,1,0
6972960000,6972960000,1032000,41.606704,-86.3556021,-0.6453344,-1.3867242,0.11211263,0.0003608431,0.00019367777,0.0,0.0037331835,-0.0018934495,0.006705013,0.006678589,-0.0005769825,-0.01214426,-0.016767275,0.051772255,-0.11530494,0.26375422,-1.0514786,0.01023155,229.39902,0.1,0.084033415,0.101304196,0.017960085,0.012969611,inf,inf,inf,inf,1,1,1,1,2,0,2,1,4,0,1,1,1,0
6972968000,6972968000,1032000,41.606704,-86.3556021,-0.6453155,-1.3867426,0.11216486,0.0003608431,0.00019367777,0.0,0.0042498955,-0.002630015,0.005139699,0.005116377,-0.0005769825,-0.01214426,-0.016767275,0.095561124,-0.07113538,-0.23022112,-1.051502,0.01023155,229.39902,0.1,0.08403574,0.10130522,0.018460054,0.013342073,inf,inf,inf,inf,1,1,1,1,2,0,2,1,4,0,1,1,1,0
6972976000,6972976000,1032000,41.606704,-86.3556021,-0.645292,-1.3867636,0.11220966,0.0003608431,0.00019367777,0.0,0.0046515805,-0.002527971,0.00515237,0.0051321,-0.0005769825,-0.01214426,-0.016767275,0.013157322,0.045352846,0.03632245,-1.0515221,0.01023155,229.39902,0.1,0.08403832,0.10130636,0.018948888,0.013708059,inf,inf,inf,inf,1,1,1,1,2,0,2,1,4,0,1,1,1,0
6972984000,6972984000,1032000,41.606704,-86.3556021,-0.64526886,-1.3867824,0.11226055,0.0003608431,0.00019367777,0.0,0.004334815,-0.0022165505,0.0060492163,0.0060340296,-0.0005769825,-0.01214426,-0.016767275,-0.03916034,0.038837418,0.11790164,-1.0515255,0.01023155,229.39902,0.1,0.08404117,0.101265214,0.019428384,0.014068081,inf,inf,inf,inf,1,1,1,1,2,0,2,1,4,0,1,1,1,0
6972992000,6972992000,1032000,41.606704,-86.3556021,-0.6452489,-1.3867986,0.11232249,0.0003608431,0.00019367777,0.0,0.003968366,-0.0018734268,0.0078943325,0.00788411,-0.0005769825,-0.01214426,-0.016767275,-0.02978298,0.044500194,0.2207718,-1.0515428,0.01023155,229.39902,0.1,0.08404432,0.1012666,0.01989776,0.014422588,inf,inf,inf,inf,1,1,1,1,2,0,2,1,4,0,1,1,1,0
6973000000,6973000000,1032000,41.606704,-86.3556021,-0.64522916,-1.3868122,0.11238311,0.0003608431,0.00019367777,0.0,0.00438571,-0.0015204555,0.0055819163,0.0055765407,-0.0005769825,-0.01214426,-0.016767275,0.084232196,0.052154753,-0.34578055,-1.0515748,0.01023155,229.39902,0.1,0.08404777,0.10126813,0.02036289,0.014771964,inf,inf,inf,inf,1,1,1,1,2,0,2,1,4,0,1,1,1,0
6973008000,6973008000,1032000,41.606704,-86.3556021,-0.6452045,-1.3868226,0.1124312,0.0003608431,0.00019367777,0.0,0.0046372074,-0.0014251798,0.0052994844,0.0052988115,-0.0005769825,-0.01214426,-0.016767275,-0.00033547587,-0.008738879,0.03235967,-1.0515826,0.01023155,229.39902,0.1,0.08390343,0.10126978,0.0207943,0.015108051,inf,inf,inf,inf,1,1,1,1,2,0,2,1,4,0,1,1,1,0
6973016000,6973016000,1032000,41.606704,-86.3556021,-0.64518464,-1.3868319,0.112468235,0.0003608431,0.00019367777,0.0,0.0040184227,-0.001746433,0.007425246,0.007390203,-0.0005769825,-0.01214426,-0.016767275,-0.07466484,-0.029505264,0.3039268,-1.0515807,0.01023155,229.39902,0.1,0.08388123,0.10125968,0.0014142136,0.001,inf,inf,inf,inf,1,1,1,1,2,0,2,1,4,0,1,1,1,0
6973024000,6973024000,1032000,41.606704,-86.3556021,-0.64516836,-1.3868405,0.11250554,0.0003608431,0.00019367777,0.0,0.0039548394,-0.001293689,0.005322293,0.0052537643,-0.0005769825,-0.01214426,-0.016767275,0.02361548,0.074356794,-0.3107293,-1.051619,0.01023155,229.39902,0.1,0.083881244,0.101259686,0.0042141173,0.0029834495,inf,inf,inf,inf,1,1,1,1,2,0,2,1,4,0,1,1,1,0
6973032000,6973032000,1032000,41.606704,-86.3556021,-0.6451527,-1.3868465,0.112529665,0.0003608431,0.00019367777,0.0,0.0037443214,-0.00133989,0.004922251,0.004821108,-0.0005769825,-0.01214426,-0.016767275,-0.041781828,-0.039927315,0.029866518,-1.051655,0.01023155,229.39902,0.1,0.083881274,0.1012597,0.0057998914,0.0041111913,inf,inf,inf,inf,1,1,1,1,2,0,2,1,4,0,1,1,1,0
6973040000,6973040000,1032000,41.606704,-86.3556021,-0.6451389,-1.3868532,0.112552255,0.0003608431,0.00019367777,0.0,0.0037241017,-0.0012680602,0.004979841,0.004846942,-0.0005769825,-0.01214426,-0.016767275,0.026357433,0.03332928,0.027485127,-1.0516543,0.01023155,229.39902,0.1,0.08388131,0.10125972,0.007044931,0.00500028,inf,inf,inf,inf,1,1,1,1,2,0,2,1,4,0,1,1,1,0
6973048000,6973048000,1032000,41.606704,-86.3556021,-0.6451252,-1.38686,0.112582035,0.0003608431,0.00019367777,0.0,0.0036854828,-0.0016685355,0.006653412,0.006491125,-0.0005769825,-0.01214426,-0.016767275,0.002558094,-0.09145722,0.23889628,-1.0516667,0.01023155,229.39902,0.1,0.08388138,0.101217404,0.008109511,0.005762265,inf,inf,inf,inf,1,1,1,1,2,0,2,1,4,0,1,1,1,0
6973056000,6973056000,1032000,41.606704,-86.3556021,-0.64511,-1.3868711,0.11260895,0.0003608431,0.00019367777,0.0,0.0041699987,-0.0020582764,0.0043414263,0.0041505317,-0.0005769825,-0.01214426,-0.016767275,0.06850533,-0.005015125,-0.3084168,-1.051614,0.01023155,229.39902,0.1,0.0838815,0.101217456,0.009056064,0.006442399,inf,inf,inf,inf,1,1,1,1,2,0,2,1,4,0,1,1,1,0
6973064000,6973064000,1032000,41.606704,-86.3556021,-0.64509284,-1.3868808,0.11262511,0.0003608431,0.00019367777,0.0,0.004196302,-0.0015602843,0.0045879683,0.0043692347,-0.0005769825,-0.01214426,-0.016767275,0.0048056664,0.05954274,0.100154355,-1.0515743,0.01023155,229.39902,0.1,0.08388166,0.10121753,0.009918403,0.0070643625,inf,inf,inf,inf,1,1,1,1,2,0,2,1,4,0,1,1,1,0
6973072000,6973072000,1032000,41.606704,-86.3556021,-0.64507586,-1.3868874,0.112643234,0.0003608431,0.00019367777,0.0,0.0041724974,-0.0013796804,0.004905728,0.004659913,-0.0005769825,-0.01214426,-0.016767275,-0.005073135,0.012961543,0.0601494,-1.051576,0.01023155,229.39902,0.1,0.0838819,0.101217635,0.010716729,0.007642374,inf,inf,inf,inf,1,1,1,1,2,0,2,1,4,0,1,1,1,0
6973080000,6973080000,1032000,41.606704,-86.3556021,-0.64506036,-1.3868934,0.11267019,0.0003608431,0.00019367777,0.0,0.003915091,-0.0014688132,0.0071043805,0.0068322304,-0.0005769825,-0.01214426,-0.016767275,-0.022222681,-0.029391404,0.30623835,-1.0515319,0.01023155,229.39902,0.1,0.08388222,0.10121778,0.011467131,0.008185751,inf,inf,inf,inf,1,1,1,1,2,0,2,1,4,0,1,1,1,0
6973088000,6973088000,1032000,41.606704,-86.3556021,-0.64504635,-1.3869019,0.11269805,0.0003608431,0.00019367777,0.0,0.0038958066,-0.0019369323,0.0051268213,0.004829071,-0.0005769825,-0.01214426,-0.016767275,0.017466502,-0.041674998,-0.27788433,-1.0515125,0.01023155,229.39902,0.1,0.08388263,0.101217955,0.012175616,0.0087009845,inf,inf,inf,inf,1,1,1,1,2,0,2,1,4,0,1,1,1,0
6973096000,6973096000,1032000,41.606704,-86.3556021,-0.64503115,-1.386912,0.11271376,0.0003608431,0.00019367777,0.0,0.004119556,-0.001995781,0.0045694713,0.004246899,-0.0005769825,-0.01214426,-0.016767275,0.016525501,-0.016943052,-0.036418498,-1.0515071,0.01023155,229.39902,0.1,0.083883144,0.10121818,0.012848348,0.009192807,inf,inf,inf,inf,1,1,1,1,2,0,2,1,4,0,1,1,1,0
6973104000,6973104000,1032000,41.606704,-86.3556021,-0.64501595,-1.3869231,0.11272604,0.0003608431,0.00019367777,0.0,0.004032265,-0.0021919345,0.004507882,0.0041614845,-0.0005769825,-0.01214426,-0.016767275,0.007957594,-0.023330089,0.037918735,-1.0515149,0.01023155,229.39902,0.1,0.08388378,0.10117616,0.013494757,0.009664791,inf,inf,inf,inf,1,1,1,1,2,0,2,1,4,0,1,1,1,0
6973112000,6973112000,1032000,41.606704,-86.3556021,-0.64500177,-1.386935,0.112746045,0.0003608431,0.00019367777,0.0,0.0037730979,-0.002228837,0.0066852286,0.0063158064,-0.0005769825,-0.01214426,-0.016767275,-0.045719042,0.0035790165,0.31294852,-1.0514681,0.01023155,229.39902,0.1,0.083884545,0.10117649,0.014115146,0.010119716,inf,inf,inf,inf,1,1,1,1,2,0,2,1,4,0,1,1,1,0
6973120000,6973120000,1032000,41.606704,-86.3556021,-0.64498997,-1.3869455,0.11276667,0.0003608431,0.00019367777,0.0,0.0035850515,-0.0018098557,0.004444741,0.00405308,-0.0005769825,-0.01214426,-0.016767275,-0.0016080609,0.0759067,-0.34069833,-1.0514473,0.01023155,229.39902,0.1,0.08388545,0.101176895,0.0147134345,0.010559786,inf,inf,inf,inf,1,1,1,1,2,0,2,1,4,0,1,1,1,0
6973128000,6973128000,1032000,41.606704,-86.3556021,-0.6449781,-1.3869514,0.11277379,0.0003608431,0.00019367777,0.0,0.0037094215,-0.0013925453,0.0040327744,0.0036196476,-0.0005769825,-0.01214426,-0.016767275,0.01183877,0.023828136,0.025219219,-1.0514327,0.01023155,229.39902,0.1,0.08388653,0.101177365,0.015291305,0.010986788,inf,inf,inf,inf,1,1,1,1,2,0,2,1,4,0,1,1,1,0
6973136000,6973136000,1032000,41.606704,-86.3556021,-0.64496595,-1.3869569,0.11278168,0.0003608431,0.00019367777,0.0,0.0037441372,-0.0016142643,0.0045734905,0.0041396567,-0.0005769825,-0.01214426,-0.016767275,0.015777297,-0.037752066,0.08839734,-1.0514472,0.01023155,229.39902,0.1,0.08388777,0.10117791,0.015855055,0.01140219,inf,inf,inf,inf,1,1,1,1,2,0,2,1,4,0,1,1,1,0
6973144000,6973144000,1032000,41.606704,-86.3556021,-0.6449556,-1.3869638,0.11279869,0.0003608431,0.00019367777,0.0,0.0031597808,-0.0017520861,0.00641581,0.0059620147,-0.0005769825,-0.01214426,-0.016767275,-0.08805053,-0.013436058,0.24382204,-1.0514503,0.01023155,229.39902,0.1,0.08388921,0.10117854,0.016401542,0.011807209,inf,inf,inf,inf,1,1,1,1,2,0,2,1,4,0,1,1,1,0
6973152000,6973152000,1032000,41.606704,-86.3556021,-0.64494723,-1.3869704,0.11281424,0.0003608431,0.00019367777,0.0,0.0034763338,-0.0014679407,0.004174392,0.0037013683,-0.0005769825,-0.01214426,-0.016767275,0.07850532,0.064038895,-0.30591065,-1.0514798,0.01023155,229.39902,0.1,0.08389084,0.10117926,0.016934136,0.012202886,inf,inf,inf,inf,1,1,1,1,2,0,2,1,4,0,1,1,1,0
6973160000,6973160000,1032000,41.606704,-86.3556021,-0.6449376,-1.3869739,0.112818696,0.0003608431,0.00019367777,0.0,0.0032722051,-0.0011784798,0.0040207016,0.0035291694,-0.0005769825,-0.01214426,-0.016767275,-0.040929288,0.020990675,0.022941204,-1.0514809,0.01023155,229.39902,0.1,0.083892696,0.10118007,0.017452594,0.012590101,inf,inf,inf,inf,1,1,1,1,2,0,2,1,4,0,1,1,1,0
6973168000,6973168000,1032000,41.606704,-86.3556021,-0.64492875,-1.3869756,0.1128223,0.0003608431,0.00019367777,0.0,0.0033368203,-0.0010683552,0.003992903,0.0034837446,-0.0005769825,-0.01214426,-0.016767275,0.01187688,0.0006218256,0.032756414,-1.051476,0.01023155,229.39902,0.1,0.083894774,0.10113873,0.017963113,0.012969613,inf,inf,inf,inf,1,1,1,1,2,0,2,1,4,0,1,1,1,0
6973176000,6973176000,1032000,41.606704,-86.3556021,-0.64492154,-1.3869783,0.11283413,0.0003608431,0.00019367777,0.0,0.0028557084,-0.0014943413,0.006094375,0.0055682766,-0.0005769825,-0.01214426,-0.016767275,-0.057505064,-0.07282532,0.28298602,-1.0514784,0.01023155,229.39902,0.1,0.08389711,0.101139754,0.018461997,0.013342076,inf,inf,inf,inf,1,1,1,1,2,0,2,1,4,0,1,1,1,0
6973184000,6973184000,1032000,41.606704,-86.3556021,-0.64491713,-1.3869841,0.11284783,0.0003608431,0.00019367777,0.0,0.0026369623,-0.0016633089,0.004335291,0.0037929264,-0.0005769825,-0.01214426,-0.016767275,-0.026790127,0.018110951,-0.24641682,-1.0514886,0.01023155,229.39902,0.1,0.08389969,0.1011409,0.018950813,0.013708067,inf,inf,inf,inf,1,1,1,1,2,0,2,1,4,0,1,1,1,0
6973192000,6973192000,1032000,41.606704,-86.3556021,-0.6449146,-1.3869877,0.11285294,0.0003608431,0.00019367777,0.0,0.0024498373,-0.0011140563,0.004268858,0.0037108879,-0.0005769825,-0.01214426,-0.016767275,-0.0025931024,0.0675336,0.031758968,-1.0514513,0.01023155,229.39902,0.1,0.08390255,0.10114217,0.019428657,0.0140680885,inf,inf,inf,inf,1,1,1,1,2,0,2,1,4,0,1,1,1,0
6973200000,6973200000,1032000,41.606704,-86.3556021,-0.64491165,-1.3869885,0.112859406,0.0003608431,0.00019367777,0.0,0.002716017,-0.0010647571,0.0046773423,0.004104414,-0.0005769825,-0.01214426,-0.016767275,0.05109431,-0.015325704,0.07844244,-1.0514345,0.01023155,229.39902,0.1,0.083905704,0.101143554,0.019902341,0.014422587,inf,inf,inf,inf,1,1,1,1,2,0,2,1,4,0,1,1,1,0
6973208000,6973208000,1032000,41.606704,-86.3556021,-0.64490765,-1.3869895,0.11287487,0.0003608431,0.00019367777,0.0,0.002460641,-0.0011161012,0.006403565,0.005816314,-0.0005769825,-0.01214426,-0.016767275,-0.073816754,-0.014240459,0.2078972,-1.0514765,0.01023155,229.39902,0.1,0.08390916,0.10114508,0.020366713,0.0147719635,inf,inf,inf,inf,1,1,1,1,2,0,2,1,4,0,1,1,1,0
6973216000,6973216000,1032000,41.606704,-86.3556021,-0.64490545,-1.386992,0.11288811,0.0003608431,0.00019367777,0.0,0.0022479969,-0.0016701684,0.0041652406,0.003564212,-0.0005769825,-0.01214426,-0.016767275,0.013964809,-0.070600726,-0.28463736,-1.0515063,0.01023155,229.39902,0.1,0.08376556,0.10114674,0.020797988,0.015108054,inf,inf,inf,inf,1,1,1,1,2,0,2,1,4,0,1,1,1,0
6973224000,6973224000,1032000,41.606704,-86.3556021,-0.6449078,-1.3869962,0.11288118,0.0003608431,0.00019367777,0.0,0.0023327987,-0.001808976,0.004262409,0.0036279964,-0.0005769825,-0.01214426,-0.016767275,0.011438349,-0.005153988,0.07391249,-1.0515282,0.01023155,229.39902,0.1,0.0837433,0.101094425,0.0014142136,0.001,inf,inf,inf,inf,1,1,1,1,2,0,2,1,4,0,1,1,1,0
6973232000,6973232000,1032000,41.606704,-86.3556021,-0.6449114,-1.3870006,0.11287487,0.0003608431,0.00019367777,0.0,0.001986872,-0.0018243422,0.004230883,0.0035642139,-0.0005769825,-0.01214426,-0.016767275,-0.039582055,0.0003676845,0.0044516586,-1.0515355,0.01023155,229.39902,0.1,0.08374331,0.10109444,0.004214209,0.0029834486,inf,inf,inf,inf,1,1,1,1,2,0,2,1,4,0,1,1,1,0
6973240000,6973240000,1032000,41.606704,-86.3556021,-0.6449175,-1.3870043,0.11287608,0.0003608431,0.00019367777,0.0,0.0017846847,-0.0016828065,0.0064001065,0.005702286,-0.0005769825,-0.01214426,-0.016767275,-0.018746657,0.010034277,0.3179674,-1.0515441,0.01023155,229.39902,0.1,0.08374334,0.101094455,0.0058000437,0.00411119,inf,inf,inf,inf,1,1,1,1,2,0,2,1,4,0,1,1,1,0
6973248000,6973248000,1032000,41.606704,-86.3556021,-0.6449262,-1.3870063,0.112878114,0.0003608431,0.00019367777,0.0,0.0013979678,-0.0013612622,0.004175605,0.003447719,-0.0005769825,-0.01214426,-0.016767275,-0.0354547,0.052280117,-0.3207736,-1.0515494,0.01023155,229.39902,0.1,0.08374338,0.10109448,0.007045801,0.005000275,inf,inf,inf,inf,1,1,1,1,2,0,2,1,4,0,1,1,1,0
6973256000,6973256000,1032000,41.606704,-86.3556021,-0.644938,-1.3870058,0.11286823,0.0003608431,0.00019367777,0.0,0.001001948,-0.001185327,0.0039790184,0.0032221316,-0.0005769825,-0.01214426,-0.016767275,-0.049094867,0.00940776,0.051024307,-1.0515511,0.01023155,229.39902,0.1,0.08374345,0.10109451,0.008108928,0.0057622553,inf,inf,inf,inf,1,1,1,1,2,0,2,1,4,0,1,1,1,0
6973264000,6973264000,1032000,41.606704,-86.3556021,-0.6449535,-1.3870031,0.11285893,0.0003608431,0.00019367777,0.0,0.00053515664,-0.0008139126,0.004200873,0.0034160286,-0.0005769825,-0.01214426,-0.016767275,-0.053197183,0.04716315,0.051654812,-1.0515318,0.01023155,229.39902,0.1,0.083743565,0.10109456,0.009056152,0.006442389,inf,inf,inf,inf,1,1,1,1,2,0,2,1,4,0,1,1,1,0
6973272000,6973272000,1032000,41.606704,-86.3556021,-0.6449734,-1.3869984,0.11285824,0.0003608431,0.00019367777,0.0,3.1438132e-05,-0.00075614394,0.0060842508,0.0052728676,-0.0005769825,-0.01214426,-0.016767275,-0.03594097,0.0073748976,0.25576532,-1.0515015,0.01023155,229.39902,0.1,0.083743736,0.10105249,0.009918971,0.007064354,inf,inf,inf,inf,1,1,1,1,2,0,2,1,4,0,1,1,1,0
6973280000,6973280000,1032000,41.606704,-86.3556021,-0.6449958,-1.3869932,0.11285765,0.0003608431,0.00019367777,0.0,-0.00013017049,-0.0007052861,0.004150126,0.0033131929,-0.0005769825,-0.01214426,-0.016767275,-0.011987241,0.0037346417,-0.2554348,-1.0514883,0.01023155,229.39902,0.1,0.083743975,0.1010526,0.010718063,0.007642368,inf,inf,inf,inf,1,1,1,1,2,0,2,1,4,0,1,1,1,0
6973288000,6973288000,1032000,41.606704,-86.3556021,-0.6450184,-1.3869851,0.1128483,0.0003608431,0.00019367777,0.0,6.3315616e-05,1.597795e-05,0.0042066453,0.0033451316,-0.0005769825,-0.01214426,-0.016767275,0.04122402,0.1033426,0.056660667,-1.0515051,0.01023155,229.39902,0.1,0.08374429,0.10105273,0.01146623,0.008185746,inf,inf,inf,inf,1,1,1,1,2,0,2,1,4,0,1,1,1,0
6973296000,6973296000,1032000,41.606704,-86.3556021,-0.6450396,-1.3869718,0.11284026,0.0003608431,0.00019367777,0.0,0.0001721256,0.00038207948,0.004402109,0.0035169635,-0.0005769825,-0.01214426,-0.016767275,0.016768204,0.021912895,0.04235928,-1.0514957,0.01023155,229.39902,0.1,0.0837447,0.10105291,0.01217575,0.008700981,inf,inf,inf,inf,1,1,1,1,2,0,2,1,4,0,1,1,1,0
6973304000,6973304000,1032000,41.606704,-86.3556021,-0.64506084,-1.3869574,0.11283322,0.0003608431,0.00019367777,0.0,8.29036e-05,0.00034300392,0.004483763,0.0035759418,-0.0005769825,-0.01214426,-0.016767275,-0.010911288,-0.013062608,0.026162649,-1.0514852,0.01023155,229.39902,0.1,0.08374522,0.10105314,0.012849789,0.009192804,inf,inf,inf,inf,1,1,1,1,2,0,2,1,4,0,1,1,1,0
6973312000,6973312000,1032000,41.606704,-86.3556021,-0.64508396,-1.3869427,0.11283432,0.0003608431,0.00019367777,0.0,-0.00028361994,0.0005152159,0.006540137,0.0056106015,-0.0005769825,-0.01214426,-0.016767275,-0.047816973,0.03858473,0.29122356,-1.0514616,0.01023155,229.39902,0.1,0.08374585,0.10105342,0.013494937,0.00966479,inf,inf,inf,inf,1,1,1,1,2,0,2,1,4,0,1,1,1,0
6973320000,6973320000,1032000,41.606704,-86.3556021,-0.6451087,-1.386926,0.11283613,0.0003608431,0.00019367777,0.0,-0.00016542008,0.0006503265,0.004420021,0.0034697137,-0.0005769825,-0.01214426,-0.016767275,0.0506637,-0.004421685,-0.2937066,-1.0514141,0.01023155,229.39902,0.1,0.08374663,0.10105375,0.014113599,0.010119715,inf,inf,inf,inf,1,1,1,1,2,0,2,1,4,0,1,1,1,0
6973328000,6973328000,1032000,41.606704,-86.3556021,-0.64513206,-1.3869098,0.11282801,0.0003608431,0.00019367777,0.0,-0.00012190841,0.00047108348,0.0043537766,0.0033836202,-0.0005769825,-0.01214426,-0.016767275,-0.0065463562,-0.023084905,0.033490296,-1.0513748,0.01023155,229.39902,0.1,0.083747536,0.101054154,0.014713468,0.010559784,inf,inf,inf,inf,1,1,1,1,2,0,2,1,4,0,1,1,1,0
6973336000,6973336000,1032000,41.606704,-86.3556021,-0.645156,-1.3868955,0.11281979,0.0003608431,0.00019367777,0.0,-0.00022339902,0.00020866646,0.004259527,0.0032704694,-0.0005769825,-0.01214426,-0.016767275,-0.0042518987,-0.028790709,0.003641408,-1.0513864,0.01023155,229.39902,0.1,0.08374861,0.10101253,0.01529274,0.010986784,inf,inf,inf,inf,1,1,1,1,2,0,2,1,4,0,1,1,1,0
6973344000,6973344000,1032000,41.606704,-86.3556021,-0.6451812,-1.3868805,0.11281108,0.0003608431,0.00019367777,0.0,-0.00039984452,0.00061482773,0.0042214445,0.0032143667,-0.0005769825,-0.01214426,-0.016767275,-0.00730251,0.060494117,0.013062667,-1.0513704,0.01023155,229.39902,0.1,0.08374986,0.10101308,0.015854608,0.011402181,inf,inf,inf,inf,1,1,1,1,2,0,2,1,4,0,1,1,1,0
6973352000,6973352000,1032000,41.606704,-86.3556021,-0.6452085,-1.3868643,0.11280922,0.0003608431,0.00019367777,0.0,-0.0009300157,0.00030296235,0.005994474,0.004970239,-0.0005769825,-0.01214426,-0.016767275,-0.09263445,-0.07852716,0.25354412,-1.0513781,0.01023155,229.39902,0.1,0.0837513,0.10101371,0.016399832,0.011807203,inf,inf,inf,inf,1,1,1,1,2,0,2,1,4,0,1,1,1,0
6973360000,6973360000,1032000,41.606704,-86.3556021,-0.64524114,-1.3868515,0.11280669,0.0003608431,0.00019367777,0.0,-0.0015025616,-4.0778377e-06,0.0037341425,0.002693593,-0.0005769825,-0.01214426,-0.016767275,-0.038011067,-0.011545724,-0.3222237,-1.051384,0.01023155,229.39902,0.1,0.08375294,0.10101443,0.016934225,0.012202881,inf,inf,inf,inf,1,1,1,1,2,0,2,1,4,0,1,1,1,0
6973368000,6973368000,1032000,41.606704,-86.3556021,-0.64527565,-1.38684,0.112791926,0.0003608431,0.00019367777,0.0,-0.0015263191,-0.00020260552,0.0032996207,0.0022435815,-0.0005769825,-0.01214426,-0.016767275,0.0015206932,-0.041744735,0.011012826,-1.0514128,0.01023155,229.39902,0.1,0.08375479,0.10101524,0.017454496,0.012590092,inf,inf,inf,inf,1,1,1,1,2,0,2,1,4,0,1,1,1,0
6973376000,6973376000,1032000,41.606704,-86.3556021,-0.6453093,-1.3868309,0.112777025,0.0003608431,0.00019367777,0.0,-0.0012694146,-0.0005455908,0.0033541103,0.0022833874,-0.0005769825,-0.01214426,-0.016767275,0.045366615,-0.034318406,6.326673e-05,-1.0514231,0.01023155,229.39902,0.1,0.08375688,0.10101616,0.01796321,0.0129696,inf,inf,inf,inf,1,1,1,1,2,0,2,1,4,0,1,1,1,0
6973384000,6973384000,1032000,41.606704,-86.3556021,-0.645343,-1.3868227,0.11276169,0.0003608431,0.00019367777,0.0,-0.0015984854,-0.0004236245,0.0032718,0.0021871815,-0.0005769825,-0.01214426,-0.016767275,-0.04296471,0.019199433,0.01974118,-1.0514059,0.01023155,229.39902,0.1,0.08375921,0.101017185,0.018461535,0.013342063,inf,inf,inf,inf,1,1,1,1,2,0,2,1,4,0,1,1,1,0
6973392000,6973392000,1032000,41.606704,-86.3556021,-0.6453791,-1.3868142,0.11275362,0.0003608431,0.00019367777,0.0,-0.0018844738,-0.0005432797,0.005078489,0.0039804373,-0.0005769825,-0.01214426,-0.016767275,-0.032136567,-0.025349917,0.23350951,-1.0513579,0.01023155,229.39902,0.1,0.083761804,0.10097628,0.01894846,0.013708052,inf,inf,inf,inf,1,1,1,1,2,0,2,1,4,0,1,1,1,0
6973400000,6973400000,1032000,41.606704,-86.3556021,-0.64541554,-1.3868065,0.11274373,0.0003608431,0.00019367777,0.0,-0.0016201172,-0.0005536557,0.0026142737,0.0015035511,-0.0005769825,-0.01214426,-0.016767275,0.05573553,0.011282776,-0.3310638,-1.0513453,0.01023155,229.39902,0.1,0.083764665,0.10097754,0.019430237,0.014068074,inf,inf,inf,inf,1,1,1,1,2,0,2,1,4,0,1,1,1,0
6973408000,6973408000,1032000,41.606704,-86.3556021,-0.6454491,-1.3867967,0.112722576,0.0003608431,0.00019367777,0.0,-0.0012657536,-6.058504e-05,0.0024633629,0.0013407145,-0.0005769825,-0.01214426,-0.016767275,0.05144684,0.06662768,0.03207748,-1.0513686,0.01023155,229.39902,0.1,0.083767824,0.10097893,0.019901922,0.014422575,inf,inf,inf,inf,1,1,1,1,2,0,2,1,4,0,1,1,1,0
6973416000,6973416000,1032000,41.606704,-86.3556021,-0.64547986,-1.3867831,0.11270324,0.0003608431,0.00019367777,0.0,-0.0009993425,0.00031485647,0.002906504,0.0017726577,-0.0005769825,-0.01214426,-0.016767275,0.029220562,0.037087057,0.09002529,-1.0514032,0.01023155,229.39902,0.1,0.08377129,0.10098047,0.02036599,0.014771954,inf,inf,inf,inf,1,1,1,1,2,0,2,1,4,0,1,1,1,0
6973424000,6973424000,1032000,41.606704,-86.3556021,-0.6455092,-1.3867668,0.11268759,0.0003608431,0.00019367777,0.0,-0.0009506883,0.0005158275,0.0030777024,0.001933359,-0.0005769825,-0.01214426,-0.016767275,0.008983756,0.029682782,0.0051566698,-1.0514194,0.01023155,229.39902,0.1,0.083628416,0.10098213,0.020797845,0.0151080405,inf,inf,inf,inf,1,1,1,1,2,0,2,1,4,0,1,1,1,0
6973432000,6973432000,1032000,41.606704,-86.3556021,-0.6455315,-1.386755,0.11266887,0.0003608431,0.00019367777,0.0,-0.0014498022,0.0004768409,0.0046711494,0.0034966948,-0.0005769825,-0.01214426,-0.016767275,-0.0956359,-0.01330557,0.23241334,-1.0514148,0.01023155,229.39902,0.1,0.08360611,0.100972,0.0014142136,0.001,inf,inf,inf,inf,1,1,1,1,2,0,2,1,4,0,1,1,1,0
6973440000,6973440000,1032000,41.606704,-86.3556021,-0.64555585,-1.3867438,0.11264865,0.0003608431,0.00019367777,0.0,-0.0013086456,0.0004554267,0.0026155422,0.0014121683,-0.0005769825,-0.01214426,-0.016767275,0.06379133,0.003358956,-0.25172815,-1.0514299,0.01023155,229.39902,0.1,0.083606124,0.100972004,0.0042142253,0.00298345,inf,inf,inf,inf,1,1,1,1,2,0,2,1,4,0,1,1,1,0
6973448000,6973448000,1032000,41.606704,-86.3556021,-0.6455772,-1.3867333,0.112619415,0.0003608431,0.00019367777,0.0,-0.0012320679,0.00039150327,0.0024908613,0.0012597356,-0.0005769825,-0.01214426,-0.016767275,-0.0427931,-0.0018500846,0.005888689,-1.0514463,0.01023155,229.39902,0.1,0.083606154,0.10097202,0.005800151,0.004111192,inf,inf,inf,inf,1,1,1,1,2,0,2,1,4,0,1,1,1,0
6973456000,6973456000,1032000,41.606704,-86.3556021,-0.6456006,-1.3867247,0.11258681,0.0003608431,0.00019367777,0.0,-0.0017770458,2.0809795e-05,0.001873699,0.00061573606,-0.0005769825,-0.01214426,-0.016767275,-0.06864391,-0.044879578,-0.047303796,-1.051425,0.01023155,229.39902,0.1,0.08360619,0.10093005,0.0070459093,0.005000279,inf,inf,inf,inf,1,1,1,1,2,0,2,1,4,0,1,1,1,0
6973464000,6973464000,1032000,41.606704,-86.3556021,-0.64562523,-1.3867186,0.112551406,0.0003608431,0.00019367777,0.0,-0.0015696292,-0.00015443213,0.0017841862,0.00050051295,-0.0005769825,-0.01214426,-0.016767275,0.052724488,-0.02227778,0.018040584,-1.0514075,0.01023155,229.39902,0.1,0.083606265,0.10093008,0.008109938,0.0057622585,inf,inf,inf,inf,1,1,1,1,2,0,2,1,4,0,1,1,1,0
6973472000,6973472000,1032000,41.606704,-86.3556021,-0.64564675,-1.3867153,0.112514414,0.0003608431,0.00019367777,0.0,-0.0013319661,-0.0006024975,0.0013489902,4.0709405e-05,-0.0005769825,-0.01214426,-0.016767275,0.011368435,-0.052589756,-0.055675454,-1.0513698,0.01023155,229.39902,0.1,0.08360638,0.10093013,0.009055696,0.0064423922,inf,inf,inf,inf,1,1,1,1,2,0,2,1,4,0,1,1,1,0
6973480000,6973480000,1032000,41.606704,-86.3556021,-0.6456668,-1.3867153,0.1124794,0.0003608431,0.00019367777,0.0,-0.0013564015,-0.0008555037,0.0025105253,0.0011787162,-0.0005769825,-0.01214426,-0.016767275,-0.021075975,-0.016318323,0.20363174,-1.0513477,0.01023155,229.39902,0.1,0.08360655,0.100930214,0.009919642,0.0070643583,inf,inf,inf,inf,1,1,1,1,2,0,2,1,4,0,1,1,1,0
6973488000,6973488000,1032000,41.606704,-86.3556021,-0.64568657,-1.3867142,0.11244288,0.0003608431,0.00019367777,0.0,-0.001304751,-0.00014407892,0.00064962165,-0.0007046598,-0.0005769825,-0.01214426,-0.016767275,0.019900603,0.1353561,-0.24886712,-1.0513524,0.01023155,229.39902,0.1,0.08360679,0.10093032,0.010719075,0.00764237,inf,inf,inf,inf,1,1,1,1,2,0,2,1,4,0,1,1,1,0
6973496000,6973496000,1032000,41.606704,-86.3556021,-0.6457031,-1.3867079,0.11239731,0.0003608431,0.00019367777,0.0,-0.00066971907,0.00022201554,0.0004734971,-0.000902224,-0.0005769825,-0.01214426,-0.016767275,0.09499422,0.0065869703,0.024737725,-1.0513362,0.01023155,229.39902,0.1,0.0836071,0.10093046,0.011468027,0.008185746,inf,inf,inf,inf,1,1,1,1,2,0,2,1,4,0,1,1,1,0
6973504000,6973504000,1032000,41.606704,-86.3556021,-0.6457149,-1.3867013,0.112352766,0.0003608431,0.00019367777,0.0,-0.0005328334,0.00014439426,0.00076855824,-0.0006275927,-0.0005769825,-0.01214426,-0.016767275,-0.034328584,-0.0008127729,0.056143783,-1.0513172,0.01023155,229.39902,0.1,0.08360752,0.10093064,0.0121762315,0.008700979,inf,inf,inf,inf,1,1,1,1,2,0,2,1,4,0,1,1,1,0
6973512000,6973512000,1032000,41.606704,-86.3556021,-0.64572656,-1.3866963,0.11231021,0.0003608431,0.00019367777,0.0,-0.00045952317,-0.00022371241,0.0007562849,-0.0006586624,-0.0005769825,-0.01214426,-0.016767275,0.041642614,-0.06467183,0.01031154,-1.051308,0.01023155,229.39902,0.1,0.08360803,0.10088892,0.012849361,0.009192801,inf,inf,inf,inf,1,1,1,1,2,0,2,1,4,0,1,1,1,0
6973520000,6973520000,1032000,41.606704,-86.3556021,-0.64573425,-1.3866957,0.112266526,0.0003608431,0.00019367777,0.0,0.00010740575,-0.0007009117,0.0004956429,-0.00093710143,-0.0005769825,-0.01214426,-0.016767275,0.052353676,-0.03565996,-0.009299318,-1.0513105,0.01023155,229.39902,0.1,0.08360867,0.1008892,0.013495817,0.009664787,inf,inf,inf,inf,1,1,1,1,2,0,2,1,4,0,1,1,1,0
