timestamp,timestamp_sample,ref_timestamp,ref_lat,ref_lon,x,y,z,delta_xy[0],delta_xy[1],delta_z,vx,vy,vz,z_deriv,delta_vxy[0],delta_vxy[1],delta_vz,ax,ay,az,heading,delta_heading,ref_alt,dist_bottom,eph,epv,evh,evv,vxy_max,vz_max,hagl_min,hagl_max,xy_valid,z_valid,v_xy_valid,v_z_valid,xy_reset_counter,z_reset_counter,vxy_reset_counter,vz_reset_counter,heading_reset_counter,heading_good_for_control,xy_global,z_global,dist_bottom_valid,dist_bottom_sensor_bitfield
6971388000,6971388000,1032000,41.606704,-86.3556021,-0.6452646,-1.3878387,0.11215177,0.00034699737,0.00016040793,0.0,-0.0007838596,-0.0025691278,0.00041573762,-0.0008901513,-0.0007508912,-0.012191404,-0.016614985,0.052456807,-0.010714208,0.046395633,-1.0533091,0.009620015,229.39903,0.1,0.08485687,0.10244355,0.009056167,0.006442388,inf,inf,inf,inf,1,1,1,1,2,0,2,1,4,0,1,1,1,0
6971884000,6971884000,1032000,41.606704,-86.3556021,-0.6460303,-1.3872167,0.110346854,0.00034699737,0.00016040793,0.0,-0.0015598581,-0.0015332728,0.0010356134,-8.048617e-05,-0.0007508912,-0.012191404,-0.016614985,0.019820662,-0.020495629,0.60067505,-1.0526533,0.009620015,229.39903,0.10045411,0.084577456,0.102061175,0.015852915,0.011401589,inf,inf,inf,inf,1,1,1,1,2,0,2,1,4,0,1,1,1,0
6972388000,6972388000,1032000,41.606704,-86.3556021,-0.6457433,-1.3865421,0.11080002,0.00034699737,0.00016040793,0.0,0.0004458807,0.00047679333,0.00056698977,0.00037477142,-0.0007508912,-0.012191404,-0.016614985,-0.033399258,-0.051446248,-0.13503996,-1.0524611,0.009620015,229.39903,0.10044894,0.084297575,0.10172436,0.0014142136,0.001,inf,inf,inf,inf,1,1,1,1,2,0,2,1,4,0,1,1,1,0
6972892000,6972892000,1032000,41.606704,-86.3556021,-0.6452559,-1.3869679,0.11192988,0.00034699737,0.00016040793,0.0,0.0025214662,-0.00068279397,0.0022161365,0.002128481,-0.0007508912,-0.012191404,-0.016614985,-0.019651562,0.08956209,0.039973233,-1.0520365,0.009620015,229.39903,0.10008663,0.08402059,0.10134862,0.013492513,0.009664792,inf,inf,inf,inf,1,1,1,1,2,0,2,1,4,0,1,1,1,0
6973388000,6973388000,1032000,41.606704,-86.3556021,-0.6452426,-1.3871707,0.112914234,0.00034699737,0.00016040793,0.0,-0.002066135,-0.0007414556,0.00518926,0.0040777572,-0.0007508912,-0.012191404,-0.016614985,-0.043120716,-0.0245522,0.45216447,-1.0518554,0.009620015,229.39903,0.1,0.08375997,0.10102505,0.01894851,0.013708045,inf,inf,inf,inf,1,1,1,1,2,0,2,1,4,0,1,1,1,0
6973884000,6973884000,1032000,41.606704,-86.3556021,-0.6459663,-1.3876171,0.11146514,0.00034699737,0.00016040793,0.0,-0.0024169097,-0.0033369116,0.00056961656,-0.00087633746,-0.0007508912,-0.012191404,-0.016614985,-0.0061236722,-0.08593018,-0.022963682,-1.0519091,0.009620015,229.39903,0.1,0.08333237,0.100651994,0.009055656,0.006442389,inf,inf,inf,inf,1,1,1,1,2,0,2,1,4,0,1,1,1,0
6974388000,6974388000,1032000,41.606704,-86.3556021,-0.6469345,-1.3877543,0.112274855,0.00034699737,0.00016040793,0.0,-0.0016778063,-0.0034736176,0.008112843,0.0066700266,-0.0007508912,-0.012191404,-0.016614985,-0.04830373,-0.068525776,0.006478216,-1.0520332,0.009620015,229.39903,0.1,0.08321445,0.10029059,0.016398143,0.011807213,inf,inf,inf,inf,1,1,1,1,2,0,2,1,4,0,1,1,1,0
6974892000,6974892000,1032000,41.606704,-86.3556021,-0.6447246,-1.3861876,0.11133087,0.00034699737,0.00016040793,0.0,0.0033125964,0.0027872187,0.00021564824,-0.0015512108,-0.0007508912,-0.012191404,-0.016614985,0.07536774,0.015669076,0.017964216,-1.0517893,0.009620015,229.39903,0.1,0.082805544,0.09997091,0.0042143855,0.0029834488,inf,inf,inf,inf,1,1,1,1,2,0,2,1,4,0,1,1,1,0
6975388000,6975388000,1032000,41.606704,-86.3556021,-0.6451123,-1.3858666,0.11091446,0.00034699737,0.00016040793,0.0,-0.0015154055,0.0029367073,0.0018279026,0.0009502079,-0.0007508912,-0.012191404,-0.016614985,0.006646104,-0.003154136,0.122457676,-1.0514988,0.009620015,229.39903,0.10037724,0.08254435,0.09961478,0.013495455,0.009664784,inf,inf,inf,inf,1,1,1,1,2,0,2,1,4,0,1,1,1,0
6975884000,6975884000,1032000,41.606704,-86.3556021,-0.646447,-1.3850284,0.11068884,0.00034699737,0.00016040793,0.0,-0.00046702637,0.0073505314,-0.0015759898,-0.0018384978,-0.0007508912,-0.012191404,-0.016614985,0.04527153,-0.0052575595,-0.63707125,-1.0518097,0.009620015,229.39903,0.10082022,0.082299404,0.09930845,0.018941414,0.0137059335,inf,inf,inf,inf,1,1,1,1,2,0,2,1,4,0,1,1,1,0
6976388000,6976388000,1032000,41.606704,-86.3556021,-0.64614356,-1.385973,0.11025039,0.00034699737,0.00016040793,0.0,-0.001038643,0.00316026,8.540918e-05,9.735097e-05,-0.0007508912,-0.012191404,-0.016614985,-0.073021546,-0.0405411,0.885981,-1.0515639,0.009620015,229.39903,0.100871526,0.08209207,0.09898111,0.023853699,0.01741642,inf,inf,inf,inf,1,1,1,1,2,0,2,1,4,0,1,1,1,0
6976884000,6976884000,1032000,41.606704,-86.3556021,-0.6474317,-1.3853356,0.1107688,0.00034699737,0.00016040793,0.0,-0.00748026,0.0061870785,0.0027615784,0.0029688382,-0.0007508912,-0.012191404,-0.016614985,-0.09316073,0.09190733,2.0587387,-1.0516297,0.009620015,229.39903,0.100353114,0.083844334,0.09962484,0.04542931,0.034262247,inf,inf,inf,inf,1,1,1,1,2,0,2,1,4,0,1,1,1,0
6977388000,6977388000,1032000,41.606704,-86.3556021,-0.6535973,-1.3748138,0.077943675,0.00034699737,0.00016040793,0.0,-0.020013137,0.043894473,-0.34069324,-0.34050834,-0.0007508912,-0.012191404,-0.016614985,-0.09590157,0.17914402,-1.9673601,-1.0582974,0.009620015,229.39903,0.13403764,0.09212756,0.10366209,0.06494675,0.049182788,inf,inf,inf,inf,1,1,1,1,2,0,2,1,4,0,1,1,1,0
6977892000,6977892000,1032000,41.606704,-86.3556021,-0.6595771,-1.3511622,-0.3486189,0.00034699737,0.00016040793,0.0,-0.0073302314,0.027658971,-1.3611516,-1.3593162,-0.0007508912,-0.012191404,-0.016614985,0.019848587,-0.09433347,-2.0284781,-1.0577404,0.009620015,229.39903,0.5606002,0.10993094,0.11373691,0.08441461,0.06249979,inf,inf,inf,inf,1,1,1,1,2,0,2,1,4,0,1,1,1,0
6978388000,6978388000,1032000,41.606704,-86.3556021,-0.657724,-1.3458929,-1.0667127,0.00034699737,0.00016040793,0.0,0.0057106726,-0.0038376437,-1.2175366,-1.2161942,-0.0007508912,-0.012191404,-0.016614985,0.035371646,-2.5201178e-05,1.175463,-1.0569195,0.009620015,229.39903,1.278694,0.14016774,0.13179001,0.10251388,0.0756365,inf,inf,inf,inf,1,1,1,1,2,0,2,1,4,0,1,1,1,0
6978892000,6978892000,1032000,41.606704,-86.3556021,-0.65312874,-1.3501573,-1.5460504,0.00034699737,0.00016040793,0.0,0.0037662752,-0.010449867,-0.71746606,-0.719083,-0.0007508912,-0.012191404,-0.016614985,0.013680968,-0.0051657376,0.63854444,-1.0486013,0.0062540774,229.39903,1.7580317,0.17032985,0.15537684,0.10571758,0.085519955,inf,inf,inf,inf,1,1,1,1,2,0,2,1,5,0,1,1,1,0
6979388000,6979388000,1032000,41.606704,-86.3556021,-0.65080905,-1.3575196,-1.829788,0.00034699737,0.00016040793,0.0,0.0028252343,-0.0121019995,-0.44327208,-0.44586056,-0.0007508912,-0.012191404,-0.016614985,-0.05060168,0.018223086,0.5748373,-1.0491151,0.0062540774,229.39903,2.0417693,0.2085947,0.18673503,0.11499803,0.096823245,inf,inf,inf,inf,1,1,1,1,2,0,2,1,5,0,1,1,1,0
6979892000,6979892000,1032000,41.606704,-86.3556021,-0.6492477,-1.3624555,-2.007695,0.00034699737,0.00016040793,0.0,-0.001984324,-0.006654667,-0.28388843,-0.28557032,-0.0007508912,-0.012191404,-0.016614985,-0.13154656,-0.0761246,-0.9329142,-1.0482183,0.0062540774,229.39903,2.2196763,0.23141707,0.21516414,0.12097738,0.1020753,inf,inf,inf,inf,1,1,1,1,2,0,2,1,5,1,1,1,1,0
6980388000,6980388000,1032000,41.606704,-86.3556021,-0.64801705,-1.3656212,-2.1186826,0.00034699737,0.00016040793,0.0,-0.0051710466,0.00072889205,-0.17866355,-0.1784915,-0.0007508912,-0.012191404,-0.016614985,-0.0658168,0.05143729,0.72100466,-1.047743,0.0062540774,229.39903,2.330664,0.25830674,0.24582408,0.1337522,0.10770702,inf,inf,inf,inf,1,1,1,1,2,0,2,1,5,1,1,1,1,0
6980884000,6980884000,1032000,41.606704,-86.3556021,-0.65235084,-1.3655103,-2.0919003,0.00034699737,0.00016040793,0.0,-0.006013119,0.015983598,0.07061235,0.07650469,-0.0007508912,-0.012191404,-0.016614985,0.040018573,0.09292481,-0.29939044,-1.0478294,0.0062540774,229.39903,2.3038816,0.2825,0.27552414,0.14381398,0.11185737,inf,inf,inf,inf,1,1,1,1,2,0,2,1,5,1,1,1,1,0
6981388000,6981388000,1032000,41.606704,-86.3556021,-0.6533672,-1.3465286,-2.1048353,0.00034699737,0.00016040793,0.0,-0.0064007235,0.14552361,-0.20646697,-0.19164126,-0.0007508912,-0.012191404,-0.016614985,0.0036595478,0.5562705,-0.67159724,-1.0501935,0.0062540774,229.39903,2.3168166,0.30453783,0.30357254,0.15305492,0.11481243,inf,inf,inf,inf,1,1,1,1,2,0,2,1,5,1,1,1,0,0
6981884000,6981884000,1032000,41.606704,-86.3556021,-0.65212816,-1.1796434,-2.2740598,0.00034699737,0.00016040793,0.0,-0.0076256236,0.6729784,-0.499157,-0.48347983,-0.0007508912,-0.012191404,-0.016614985,0.061776027,1.5802269,-0.4838249,-1.0493125,0.0062540774,229.39903,2.486041,0.32391122,0.32684103,0.16107768,0.11634499,inf,inf,inf,inf,1,1,1,1,2,0,2,1,5,1,1,1,0,0
6982388000,6982388000,1032000,41.606704,-86.3556021,-0.6485834,-0.67510355,-2.5654342,0.00034699737,0.00016040793,0.0,-0.003880092,1.4421152,-0.65264887,-0.6407487,-0.0007508912,-0.012191404,-0.016614985,-0.00063237717,1.4361975,-0.24957865,-1.0525796,0.0062540774,229.39903,2.7774155,0.3394001,0.34674004,0.16618037,0.11675102,inf,inf,inf,inf,1,1,1,1,2,0,2,1,5,1,1,1,0,0
6982884000,6982884000,1032000,41.606704,-86.3556021,-0.6302449,0.17408614,-2.9061441,0.00034699737,0.00016040793,0.0,-0.005120446,2.019588,-0.70427483,-0.6978517,-0.0007508912,-0.012191404,-0.016614985,0.023187466,0.9303118,-0.18315953,-1.0636874,0.0062540774,229.39903,3.1181254,0.33243886,0.3560551,0.15544178,0.11341635,inf,inf,inf,inf,1,1,1,1,2,0,2,1,5,1,1,1,0,0
6983388000,6983388000,1032000,41.606704,-86.3556021,-0.6082079,1.278027,-3.270808,0.00034699737,0.00016040793,0.0,-0.020581203,2.3325975,-0.69176096,-0.6946246,-0.0007508912,-0.012191404,-0.016614985,-0.085558556,0.43622547,-0.064393565,-1.0739928,0.0062540774,229.39903,3.4827893,0.36535937,0.37838492,0.16833372,0.11715585,inf,inf,inf,inf,1,1,1,1,2,0,2,1,5,1,1,1,0,0
6983884000,6983884000,1032000,41.606704,-86.3556021,-0.59423995,2.4747741,-3.6308696,0.00034699737,0.00016040793,0.0,-0.032797065,2.4592645,-0.6699131,-0.6872411,-0.0007508912,-0.012191404,-0.016614985,-0.053370018,0.09934071,0.07139233,-1.0788897,0.0062540774,229.39903,3.842851,0.35077122,0.3820849,0.15100873,0.11345966,inf,inf,inf,inf,1,1,1,1,2,0,2,1,5,1,1,1,0,0
6984388000,6984388000,1032000,41.606704,-86.3556021,-0.6027563,3.7386763,-3.9915974,0.00034699737,0.00016040793,0.0,-0.04832787,2.508538,-0.6497449,-0.6815374,-0.0007508912,-0.012191404,-0.016614985,-0.08041771,-0.018709287,0.03766076,-1.0870169,0.0062540774,229.39903,4.203579,0.35891855,0.39090127,0.14949694,0.11356713,inf,inf,inf,inf,1,1,1,1,2,0,2,1,5,1,1,1,0,0
6984892000,6984892000,1032000,41.606704,-86.3556021,-0.62274635,5.023453,-4.3431416,0.00034699737,0.00016040793,0.0,-0.042784918,2.524887,-0.6475669,-0.686605,-0.0007508912,-0.012191404,-0.016614985,0.031582106,0.06037342,-0.030770026,-1.0942143,0.0062540774,229.39903,4.555123,0.3640436,0.399931,0.14721964,0.11391103,inf,inf,inf,inf,1,1,1,1,2,0,2,1,5,1,1,1,0,0
6985388000,6985388000,1032000,41.606704,-86.3556021,-0.64316404,6.2936645,-4.6927094,0.00034699737,0.00016040793,0.0,-0.032610163,2.5208435,-0.6332356,-0.6804941,-0.0007508912,-0.012191404,-0.016614985,0.005614266,-0.07674311,0.009199541,-1.1057847,0.0062540774,229.39903,4.9046907,0.3685846,0.4043175,0.14665745,0.11397149,inf,inf,inf,inf,1,1,1,1,2,0,2,1,5,1,1,1,0,0
6985884000,6985884000,1032000,41.606704,-86.3556021,-0.66483784,7.547032,-5.0414762,0.00034699737,0.00016040793,0.0,-0.01712432,2.4891045,-0.6265182,-0.6802596,-0.0007508912,-0.012191404,-0.016614985,-0.01944897,-0.015342073,-0.016816024,-1.1128032,0.0062540774,229.39903,5.2534575,0.37338105,0.41023567,0.14763846,0.11478185,inf,inf,inf,inf,1,1,1,1,2,0,2,1,5,1,1,1,0,0
6986388000,6986388000,1032000,41.606704,-86.3556021,-0.68155056,8.80979,-5.3895497,0.00034699737,0.00016040793,0.0,-0.0075608464,2.4834166,-0.6443405,-0.69767773,-0.0007508912,-0.012191404,-0.016614985,0.35583833,0.14897865,0.17980479,-1.1225209,0.0062540774,229.39903,5.601531,0.37651604,0.41261363,0.14774242,0.11505436,inf,inf,inf,inf,1,1,1,1,2,0,2,1,5,1,1,1,0,0
6986884000,6986884000,1032000,41.606704,-86.3556021,-0.69098234,10.050416,-5.7433133,0.00034699737,0.00016040793,0.0,0.007125654,2.4702806,-0.6459869,-0.70542306,-0.0007508912,-0.012191404,-0.016614985,0.058471773,-0.18297754,0.058003634,-1.1328306,0.0062540774,229.39903,5.9552946,0.35913265,0.40984288,0.13891396,0.112273164,inf,inf,inf,inf,1,1,1,1,2,0,2,1,5,1,1,1,0,0
6987388000,6987388000,1032000,41.606704,-86.3556021,-0.69352,11.30367,-6.106546,0.00034699737,0.00016040793,0.0,0.012996962,2.4694126,-0.6417004,-0.7060164,-0.0007508912,-0.012191404,-0.016614985,0.013576075,-0.03820052,0.029076757,-1.1417252,0.0062540774,229.39903,6.318527,0.38283738,0.42054603,0.14975339,0.116832525,inf,inf,inf,inf,1,1,1,1,2,0,2,1,5,1,1,1,0,0
6987892000,6987892000,1032000,41.606704,-86.3556021,-0.6976074,12.568603,-6.472691,0.00034699737,0.00016040793,0.0,0.008871338,2.472177,-0.6369431,-0.70835966,-0.0007508912,-0.012191404,-0.016614985,-0.025087303,0.025992017,-0.0005346423,-1.153376,0.0062540774,229.39903,6.6846724,0.36447084,0.4144283,0.14069547,0.11364351,inf,inf,inf,inf,1,1,1,1,2,0,2,1,5,1,1,1,0,0
6988388000,6988388000,1032000,41.606704,-86.3556021,-0.7018842,13.805433,-6.823253,0.00034699737,0.00016040793,0.0,0.010495322,2.4591029,-0.6342971,-0.7043558,-0.0007508912,-0.012191404,-0.016614985,0.039082598,-0.03161838,-0.001541402,-1.1601566,0.0062540774,229.39903,7.0352345,0.3675577,0.4171928,0.14267384,0.11465993,inf,inf,inf,inf,1,1,1,1,2,0,2,1,5,1,1,1,0,0
6988892000,6988892000,1032000,41.606704,-86.3556021,-0.6988887,15.054993,-7.1763463,0.00034699737,0.00016040793,0.0,0.017154953,2.4686852,-0.6461529,-0.7112124,-0.0007508912,-0.012191404,-0.016614985,-0.008002427,0.046727948,-0.11689501,-1.1714041,0.0062540774,229.39903,7.3883276,0.36968273,0.41711864,0.14339691,0.11510372,inf,inf,inf,inf,1,1,1,1,2,0,2,1,5,1,1,1,0,0
6989388000,6989388000,1032000,41.606704,-86.3556021,-0.69587666,16.289139,-7.530055,0.00034699737,0.00016040793,0.0,0.015309439,2.4682071,-0.64828944,-0.7127543,-0.0007508912,-0.012191404,-0.016614985,-0.018547632,-0.04052337,0.13497186,-1.1783155,0.0062540774,229.39903,7.7420363,0.3720404,0.41639298,0.1447856,0.115555935,inf,inf,inf,inf,1,1,1,1,2,0,2,1,5,1,1,1,0,0
6989884000,6989884000,1032000,41.606704,-86.3556021,-0.69277954,17.519514,-7.8807797,0.00034699737,0.00016040793,0.0,0.012949572,2.4783287,-0.6469402,-0.70809656,-0.0007508912,-0.012191404,-0.016614985,-0.059953086,-0.0367048,0.06595806,-1.1891353,0.0062540774,229.39903,8.092761,0.3739519,0.41852236,0.14568096,0.11625813,inf,inf,inf,inf,1,1,1,1,2,0,2,1,5,1,1,1,0,0
6990388000,6990388000,1032000,41.606704,-86.3556021,-0.6901653,18.773996,-8.234889,0.00034699737,0.00016040793,0.0,0.0077303895,2.4801664,-0.64789325,-0.7042155,-0.0007508912,-0.012191404,-0.016614985,0.012461559,-0.061384857,-0.05215785,-1.1926662,0.0062540774,229.39903,8.446871,0.376353,0.42105177,0.1468259,0.11701348,inf,inf,inf,inf,1,1,1,1,2,0,2,1,5,1,1,1,0,0
6990884000,6990884000,1032000,41.606704,-86.3556021,-0.6901833,20.014782,-8.582954,0.00034699737,0.00016040793,0.0,0.00982823,2.4797459,-0.66032535,-0.71267414,-0.0007508912,-0.012191404,-0.016614985,0.071487896,0.007297943,0.003355492,-1.2024362,0.0062540774,229.39903,8.794936,0.35914263,0.41418654,0.13889901,0.11364151,inf,inf,inf,inf,1,1,1,1,2,0,2,1,5,1,1,1,0,0
6991388000,6991388000,1032000,41.606704,-86.3556021,-0.6853516,21.276941,-8.941707,0.00034699737,0.00016040793,0.0,0.007730276,2.499935,-0.67479736,-0.7231261,-0.0007508912,-0.012191404,-0.016614985,-0.013782999,0.21435863,-0.022275435,-1.2098293,0.0062540774,229.39903,9.153688,0.3821157,0.41957793,0.15015653,0.11781423,inf,inf,inf,inf,1,1,1,1,2,0,2,1,5,1,1,1,0,0
6991892000,6991892000,1032000,41.606704,-86.3556021,-0.6827777,22.536373,-9.311829,0.00034699737,0.00016040793,0.0,0.0022924945,2.5009654,-0.6635099,-0.7173849,-0.0007508912,-0.012191404,-0.016614985,0.026934914,-0.0146047445,0.07094343,-1.219411,0.0062540774,229.39903,9.52381,0.36392078,0.41627452,0.1412127,0.11471389,inf,inf,inf,inf,1,1,1,1,2,0,2,1,5,1,1,1,0,0
6992388000,6992388000,1032000,41.606704,-86.3556021,-0.6801583,23.772741,-9.6601305,0.00034699737,0.00016040793,0.0,0.0017542985,2.492326,-0.6604843,-0.70841324,-0.0007508912,-0.012191404,-0.016614985,-0.040604237,0.047240607,-0.29273522,-1.2229383,0.0062540774,229.39903,9.872112,0.3879352,0.42132556,0.1530877,0.11885218,inf,inf,inf,inf,1,1,1,1,2,0,2,1,5,1,1,1,0,0
6992892000,6992892000,1032000,41.606704,-86.3556021,-0.6816497,25.023813,-10.0250025,0.00034699737,0.00016040793,0.0,0.003966619,2.4959652,-0.66558045,-0.7175304,-0.0007508912,-0.012191404,-0.016614985,0.01080203,-0.036503382,0.15253194,-1.2311382,0.0062540774,229.39903,10.236984,0.3680751,0.41771686,0.14305975,0.11544685,inf,inf,inf,inf,1,1,1,1,2,0,2,1,5,1,1,1,0,0
6993388000,6993388000,1032000,41.606704,-86.3556021,-0.68419725,26.257011,-10.381908,0.00034699737,0.00016040793,0.0,0.0006302068,2.5029838,-0.6634085,-0.71591526,-0.0007508912,-0.012191404,-0.016614985,0.017674563,0.026503542,0.076199815,-1.2366071,0.0062540774,229.39903,10.59389,0.37063408,0.41670266,0.14454913,0.11566494,inf,inf,inf,inf,1,1,1,1,2,0,2,1,5,1,1,1,0,0
6993884000,6993884000,1032000,41.606704,-86.3556021,-0.685294,27.49572,-10.72833,0.00034699737,0.00016040793,0.0,0.0048822477,2.5160618,-0.67055225,-0.71470535,-0.0007508912,-0.012191404,-0.016614985,0.026466394,0.0471824,0.045452204,-1.2421554,0.0062540774,229.39903,10.940311,0.37275362,0.41857833,0.14548971,0.11610994,inf,inf,inf,inf,1,1,1,1,2,0,2,1,5,1,1,1,0,0
6994388000,6994388000,1032000,41.606704,-86.3556021,-0.68470013,28.755333,-11.084173,0.00034699737,0.00016040793,0.0,0.0068260576,2.5132983,-0.67309463,-0.7141752,-0.0007508912,-0.012191404,-0.016614985,-0.009934877,0.0975733,-0.050361328,-1.2508729,0.0062540774,229.39903,11.296155,0.37529302,0.4180505,0.1465475,0.11630356,inf,inf,inf,inf,1,1,1,1,2,0,2,1,5,1,1,1,0,0
6994892000,6994892000,1032000,41.606704,-86.3556021,-0.6861868,30.005346,-11.450794,0.00034699737,0.00016040793,0.0,0.0055670813,2.4968524,-0.6590948,-0.70586413,-0.0007508912,-0.012191404,-0.016614985,0.042362384,-0.11763863,-0.014029505,-1.258606,0.0062540774,229.39903,11.662776,0.3788635,0.42065626,0.14837545,0.11703834,inf,inf,inf,inf,1,1,1,1,2,0,2,1,5,1,1,1,0,0
6995388000,6995388000,1032000,41.606704,-86.3556021,-0.68770564,31.20513,-11.790971,0.00034699737,0.00016040793,0.0,0.00855978,2.3268716,-0.63144004,-0.6727971,-0.0007508912,-0.012191404,-0.016614985,0.04279869,-0.79245734,-0.091567695,-1.2661059,0.0062540774,229.39903,12.002953,0.3800092,0.41944176,0.14831334,0.1169213,inf,inf,inf,inf,1,1,1,1,2,0,2,1,5,1,1,1,0,0
6995884000,6995884000,1032000,41.606704,-86.3556021,-0.6880359,32.22664,-12.095593,0.00034699737,0.00016040793,0.0,0.0075705354,1.7476805,-0.48493952,-0.5235646,-0.0007508912,-0.012191404,-0.016614985,0.053414457,-1.5353824,0.57813704,-1.2715691,0.0062540774,229.39903,12.307575,0.3617794,0.4127788,0.13950703,0.11336569,inf,inf,inf,inf,1,1,1,1,2,0,2,1,5,1,1,1,0,0
6996388000,6996388000,1032000,41.606704,-86.3556021,-0.6960771,32.90957,-12.295355,0.00034699737,0.00016040793,0.0,0.004485171,0.9774868,-0.27022323,-0.3038943,-0.0007508912,-0.012191404,-0.016614985,0.06362023,-1.3550106,0.31816393,-1.2716849,0.0062540774,229.39903,12.507337,0.3863489,0.4213078,0.15212473,0.11796798,inf,inf,inf,inf,1,1,1,1,2,0,2,1,5,1,1,1,0,0
6996892000,6996892000,1032000,41.606704,-86.3556021,-0.7193313,33.24592,-12.419552,0.00034699737,0.00016040793,0.0,0.0035628744,0.41866127,-0.14666858,-0.18342805,-0.0007508912,-0.012191404,-0.016614985,-0.0065935017,-0.8339576,0.100873336,-1.2775627,0.0062540774,229.39903,12.631534,0.36682615,0.41493842,0.14266455,0.114442214,inf,inf,inf,inf,1,1,1,1,2,0,2,1,5,1,1,1,0,0
6997388000,6997388000,1032000,41.606704,-86.3556021,-0.75305045,33.352898,-12.480035,0.00034699737,0.00016040793,0.0,0.023749225,0.11672237,-0.07915158,-0.10502688,-0.0007508912,-0.012191404,-0.016614985,-0.15944208,-0.3886192,1.425769,-1.2793683,0.0062540774,229.39903,12.692017,0.36952645,0.41689992,0.14399251,0.11529952,inf,inf,inf,inf,1,1,1,1,2,0,2,1,5,1,1,1,0,0
6997892000,6997892000,1032000,41.606704,-86.3556021,-0.7626713,33.35627,-12.515072,0.00034699737,0.00016040793,0.0,0.051177155,0.00713618,-0.055866044,-0.07368199,-0.0007508912,-0.012191404,-0.016614985,-0.08041494,-0.09846788,-1.1846098,-1.2830937,0.0062540774,229.39903,12.727054,0.3713393,0.41630042,0.14372441,0.11575815,inf,inf,inf,inf,1,1,1,1,2,0,2,1,5,1,1,1,0,0
6998388000,6998388000,1032000,41.606704,-86.3556021,-0.7678566,33.326954,-12.5196,0.00034699737,0.00016040793,0.0,0.021850707,-0.030794116,0.03944332,0.029140659,-0.0007508912,-0.012191404,-0.016614985,-0.13822141,-0.08653889,0.057530522,-1.2840376,0.0062540774,229.39903,12.731582,0.37347037,0.41826633,0.14409685,0.11666146,inf,inf,inf,inf,1,1,1,1,2,0,2,1,5,1,1,1,0,0
6998884000,6998884000,1032000,41.606704,-86.3556021,-0.7829584,33.28815,-12.501137,0.00034699737,0.00016040793,0.0,-0.0028687592,-0.026131684,0.021181209,0.015121404,-0.0007508912,-0.012191404,-0.016614985,0.06369342,0.14360668,-0.07894362,-1.2840081,0.0062540774,229.39903,12.713119,0.37653035,0.41739193,0.14587983,0.11741457,inf,inf,inf,inf,1,1,1,1,2,0,2,1,5,1,1,1,0,0
6999388000,6999388000,1032000,41.606704,-86.3556021,-0.7899519,33.25952,-12.495638,0.00034699737,0.00016040793,0.0,0.0063181412,0.0054447954,0.0025573163,-0.0029814662,-0.0007508912,-0.012191404,-0.016614985,0.09845187,0.09768162,0.04042213,-1.2833796,0.0062540774,229.39903,12.70762,0.37858638,0.4198478,0.1466796,0.1182924,inf,inf,inf,inf,1,1,1,1,2,0,2,1,5,1,1,1,0,0
6999892000,6999892000,1032000,41.606704,-86.3556021,-0.7922743,33.25203,-12.48503,0.00034699737,0.00016040793,0.0,0.01767045,0.040575817,-0.011679042,-0.006882972,-0.0007508912,-0.012191404,-0.016614985,0.012313611,0.04958186,0.0054500364,-1.2837358,0.0062540774,229.39903,12.697012,0.36143303,0.41360262,0.13894823,0.11509934,inf,inf,inf,inf,1,1,1,1,2,0,2,1,5,1,1,1,0,0
7000388000,7000388000,1032000,41.606704,-86.3556021,-0.7867935,33.264385,-12.485197,0.00034699737,0.00016040793,0.0,0.023102457,0.05925516,-0.019763844,-0.012136789,-0.0007508912,-0.012191404,-0.016614985,-0.029229878,0.07813441,-0.051617682,-1.2836186,0.0062540774,229.39903,12.697179,0.38377422,0.42118162,0.1497157,0.11965377,inf,inf,inf,inf,1,1,1,1,2,0,2,1,5,1,1,1,0,0
7000892000,7000892000,1032000,41.606704,-86.3556021,-0.77112615,33.27935,-12.480911,0.00034699737,0.00016040793,0.0,0.01789627,0.059305813,-0.024619304,-0.009873624,-0.0007508912,-0.012191404,-0.016614985,-0.104053475,-0.008714588,-0.114093594,-1.2841886,0.0062540774,229.39903,12.692893,0.36509973,0.41472524,0.14081801,0.11611663,inf,inf,inf,inf,1,1,1,1,2,0,2,1,5,1,1,1,0,0
7001388000,7001388000,1032000,41.606704,-86.3556021,-0.7529112,33.29302,-12.4778,0.00034699737,0.00016040793,0.0,0.00723751,0.05467048,-0.032111563,-0.010804118,-0.0007508912,-0.012191404,-0.016614985,-0.16845177,-0.049800284,-0.091278985,-1.2847365,0.0062540774,229.39903,12.689782,0.36799175,0.41678533,0.14275275,0.11699937,inf,inf,inf,inf,1,1,1,1,2,0,2,1,5,1,1,1,0,0
7001884000,7001884000,1032000,41.606704,-86.3556021,-0.7347706,33.315353,-12.482059,0.00034699737,0.00016040793,0.0,-0.002561801,0.053220145,-0.030167527,-0.008952728,-0.0007508912,-0.012191404,-0.016614985,-0.16719384,-0.020953402,0.18400785,-1.2856491,0.0062540774,229.39903,12.69404,0.36930764,0.4157551,0.14299168,0.11716077,inf,inf,inf,inf,1,1,1,1,2,0,2,1,5,1,1,1,0,0
7002388000,7002388000,1032000,41.606704,-86.3556021,-0.7184372,33.343357,-12.478438,0.00034699737,0.00016040793,0.0,-0.021034349,0.034695752,-0.03659915,-0.009274908,-0.0007508912,-0.012191404,-0.016614985,0.042127125,-0.042802364,0.012143452,-1.2856839,0.0062540774,229.39903,12.69042,0.37225533,0.4184272,0.14444761,0.11802829,inf,inf,inf,inf,1,1,1,1,2,0,2,1,5,1,1,1,0,0
7002884000,7002884000,1032000,41.606704,-86.3556021,-0.715204,33.362755,-12.478204,0.00034699737,0.00016040793,0.0,-0.03629334,0.015390108,-0.034825783,-0.0049500447,-0.0007508912,-0.012191404,-0.016614985,-0.04521244,-0.04784029,-0.016290758,-1.2852101,0.0062540774,229.39903,12.690186,0.37421232,0.41748166,0.14513518,0.11827395,inf,inf,inf,inf,1,1,1,1,2,0,2,1,5,1,1,1,0,0
7003388000,7003388000,1032000,41.606704,-86.3556021,-0.71116275,33.369854,-12.470173,0.00034699737,0.00016040793,0.0,-0.035775896,-0.003450259,-0.041123953,-0.0030839306,-0.0007508912,-0.012191404,-0.016614985,-0.026599294,-0.014725339,0.01758703,-1.2854612,0.0062540774,229.39903,12.682155,0.3766018,0.42002773,0.14598355,0.11895176,inf,inf,inf,inf,1,1,1,1,2,0,2,1,5,1,1,1,0,0
7003892000,7003892000,1032000,41.606704,-86.3556021,-0.70743185,33.373024,-12.474833,0.00034699737,0.00016040793,0.0,-0.040717922,-0.008327176,-0.04485133,-0.009073838,-0.0007508912,-0.012191404,-0.016614985,-0.015520047,-0.05008253,-0.017653283,-1.285411,0.0062540774,229.39903,12.686814,0.3599642,0.4138013,0.13819146,0.11553855,inf,inf,inf,inf,1,1,1,1,2,0,2,1,5,1,1,1,0,0
7004388000,7004388000,1032000,41.606704,-86.3556021,-0.7104347,33.37878,-12.479483,0.00034699737,0.00016040793,0.0,-0.044583946,-0.008062353,-0.044009093,-0.00992411,-0.0007508912,-0.012191404,-0.016614985,-0.023796994,0.039266244,0.008606289,-1.2854273,0.0062540774,229.39903,12.691464,0.38225293,0.42153522,0.14859267,0.120016,inf,inf,inf,inf,1,1,1,1,2,0,2,1,5,1,1,1,0,0
7004892000,7004892000,1032000,41.606704,-86.3556021,-0.7073104,33.38478,-12.482825,0.00034699737,0.00016040793,0.0,-0.03678991,-0.011540155,-0.03954081,-0.006900358,-0.0007508912,-0.012191404,-0.016614985,-0.0747673,0.075615525,0.01579796,-1.2849977,0.0062540774,229.39903,12.694807,0.36401296,0.41508177,0.13969478,0.116358705,inf,inf,inf,inf,1,1,1,1,2,0,2,1,5,1,1,1,0,0
7005388000,7005388000,1032000,41.606704,-86.3556021,-0.707586,33.383995,-12.485164,0.00034699737,0.00016040793,0.0,-0.041579697,-0.015093036,-0.036650103,-0.0051406194,-0.0007508912,-0.012191404,-0.016614985,-0.00092904264,0.0061490173,-0.21466617,-1.2844561,0.0062540774,229.39903,12.697145,0.3879089,0.42012167,0.1510277,0.12069167,inf,inf,inf,inf,1,1,1,1,2,0,2,1,5,1,1,1,0,0
7005892000,7005892000,1032000,41.606704,-86.3556021,-0.71250474,33.382668,-12.4842005,0.00034699737,0.00016040793,0.0,-0.03492788,-0.01594247,-0.030091565,0.0034884885,-0.0007508912,-0.012191404,-0.016614985,-0.037436586,-0.02188297,-0.17739837,-1.2843138,0.0062540774,229.39903,12.696182,0.3680732,0.4166576,0.14121152,0.117221795,inf,inf,inf,inf,1,1,1,1,2,0,2,1,5,1,1,1,0,0
7006388000,7006388000,1032000,41.606704,-86.3556021,-0.72036016,33.375633,-12.476678,0.00034699737,0.00016040793,0.0,-0.033792052,-0.019225376,-0.036184523,0.0043964516,-0.0007508912,-0.012191404,-0.016614985,-0.25832114,-0.034227114,1.2782763,-1.2844211,0.0062540774,229.39903,12.68866,0.37059915,0.41578615,0.1426512,0.11756045,inf,inf,inf,inf,1,1,1,1,2,0,2,1,5,1,1,1,0,0
7006892000,7006892000,1032000,41.606704,-86.3556021,-0.7344717,33.3744,-12.479776,0.00034699737,0.00016040793,0.0,-0.028258946,-0.0129181,-0.046020187,-0.0076566394,-0.0007508912,-0.012191404,-0.016614985,0.022291794,0.025989339,0.35275137,-1.2841184,0.0062540774,229.39903,12.691758,0.3733941,0.4184576,0.14389613,0.11832971,inf,inf,inf,inf,1,1,1,1,2,0,2,1,5,1,1,1,0,0
7007388000,7007388000,1032000,41.606704,-86.3556021,-0.7387207,33.37396,-12.475856,0.00034699737,0.00016040793,0.0,-0.012356847,-0.015464344,-0.04250692,-0.00021547676,-0.0007508912,-0.012191404,-0.016614985,0.05821419,-0.0043479847,0.028398754,-1.2839749,0.0062540774,229.39903,12.687838,0.37517813,0.41744384,0.14454946,0.11846521,inf,inf,inf,inf,1,1,1,1,2,0,2,1,5,1,1,1,0,0
7007884000,7007884000,1032000,41.606704,-86.3556021,-0.73903847,33.371338,-12.464294,0.00034699737,0.00016040793,0.0,-0.0068910983,-0.015304773,-0.057966996,-0.0051961746,-0.0007508912,-0.012191404,-0.016614985,-0.0102248965,0.024794966,-0.068175666,-1.2844077,0.0062540774,229.39903,12.676276,0.37795842,0.41946247,0.14612193,0.119141035,inf,inf,inf,inf,1,1,1,1,2,0,2,1,5,1,1,1,0,0
7008388000,7008388000,1032000,41.606704,-86.3556021,-0.75068766,33.365837,-12.460111,0.00034699737,0.00016040793,0.0,-0.004588615,-0.009917256,-0.060248516,-0.0029247832,-0.0007508912,-0.012191404,-0.016614985,0.054202408,-0.021421386,-0.06282708,-1.2840136,0.0062540774,229.39903,12.672092,0.3798086,0.4189014,0.14651076,0.11929597,inf,inf,inf,inf,1,1,1,1,2,0,2,1,5,1,1,1,0,0
7008884000,7008884000,1032000,41.606704,-86.3556021,-0.76080483,33.36958,-12.447122,0.00034699737,0.00016040793,0.0,0.0026895255,-0.004834931,-0.07239247,-0.003361004,-0.0007508912,-0.012191404,-0.016614985,0.050677333,0.014222664,0.00283302,-1.2836719,0.0062540774,229.39903,12.659103,0.36165884,0.41493976,0.13805401,0.11590121,inf,inf,inf,inf,1,1,1,1,2,0,2,1,5,1,1,1,0,0
7009388000,7009388000,1032000,41.606704,-86.3556021,-0.76598054,33.373547,-12.45307,0.00034699737,0.00016040793,0.0,0.01288121,-0.00951496,-0.07508164,-0.011406461,-0.0007508912,-0.012191404,-0.016614985,0.098667674,-0.017278114,0.07092387,-1.283685,0.0062540774,229.39903,12.665051,0.38608566,0.42352647,0.14982557,0.120787606,inf,inf,inf,inf,1,1,1,1,2,0,2,1,5,1,1,1,0,0
7009892000,7009892000,1032000,41.606704,-86.3556021,-0.769649,33.38494,-12.460552,0.00034699737,0.00016040793,0.0,0.019345408,-0.010885954,-0.06295236,-0.0041520596,-0.0007508912,-0.012191404,-0.016614985,-0.006343325,-0.10320753,-0.039273933,-1.2836866,0.0062540774,229.39903,12.672534,0.36680704,0.41675836,0.14034997,0.11694369,inf,inf,inf,inf,1,1,1,1,2,0,2,1,5,1,1,1,0,0
7010388000,7010388000,1032000,41.606704,-86.3556021,-0.7708164,33.392536,-12.463044,0.00034699737,0.00016040793,0.0,0.022411572,-0.020413477,-0.062251564,-0.0059565837,-0.0007508912,-0.012191404,-0.016614985,-0.13522871,-0.010792952,-0.18604943,-1.28362,0.0062540774,229.39903,12.675026,0.3694115,0.41574055,0.1418216,0.11728169,inf,inf,inf,inf,1,1,1,1,2,0,2,1,5,1,1,1,0,0
7010892000,7010892000,1032000,41.606704,-86.3556021,-0.7729277,33.390244,-12.476183,0.00034699737,0.00016040793,0.0,0.018547844,-0.026151896,-0.04737185,-0.0020431185,-0.0007508912,-0.012191404,-0.016614985,0.01635884,0.040775675,-0.04718645,-1.2833853,0.0062540774,229.39903,12.688165,0.37119675,0.41818026,0.14215896,0.11782578,inf,inf,inf,inf,1,1,1,1,2,0,2,1,5,1,1,1,0,0
7011388000,7011388000,1032000,41.606704,-86.3556021,-0.7832971,33.386723,-12.473487,0.00034699737,0.00016040793,0.0,0.02246664,-0.024631962,-0.04549566,0.0029813417,-0.0007508912,-0.012191404,-0.016614985,-0.06971351,-0.0008379173,0.13338861,-1.2837877,0.0062540774,229.39903,12.685469,0.3733077,0.41719288,0.14320879,0.11806302,inf,inf,inf,inf,1,1,1,1,2,0,2,1,5,1,1,1,0,0
7011892000,7011892000,1032000,41.606704,-86.3556021,-0.794395,33.38205,-12.467387,0.00034699737,0.00016040793,0.0,0.031400505,-0.023433527,-0.053685304,-0.00091776496,-0.0007508912,-0.012191404,-0.016614985,0.033987503,0.008144842,-0.041887224,-1.2837867,0.0062540774,229.39903,12.679369,0.37708902,0.4200028,0.1454089,0.11905118,inf,inf,inf,inf,1,1,1,1,2,0,2,1,5,1,1,1,0,0
7012388000,7012388000,1032000,41.606704,-86.3556021,-0.7970945,33.37613,-12.47602,0.00034699737,0.00016040793,0.0,0.03809088,-0.02322335,-0.05002821,-0.0042561246,-0.0007508912,-0.012191404,-0.016614985,-0.023708338,-0.02274916,0.06266211,-1.2839189,0.0062540774,229.39903,12.688002,0.3783528,0.41888234,0.14558816,0.119077474,inf,inf,inf,inf,1,1,1,1,2,0,2,1,5,1,1,1,0,0
7012892000,7012892000,1032000,41.606704,-86.3556021,-0.8061683,33.374763,-12.478042,0.00034699737,0.00016040793,0.0,0.04306802,-0.01635531,-0.047345515,-0.003083874,-0.0007508912,-0.012191404,-0.016614985,0.11575517,-0.08037749,0.032096107,-1.2842289,0.0062540774,229.39903,12.690023,0.36116925,0.41551793,0.13760144,0.115895845,inf,inf,inf,inf,1,1,1,1,2,0,2,1,5,1,1,1,0,0
7013388000,7013388000,1032000,41.606704,-86.3556021,-0.79862404,33.375156,-12.478864,0.00034699737,0.00016040793,0.0,0.031651203,-0.00594415,8.45398e-05,0.037614238,-0.0007508912,-0.012191404,-0.016614985,0.033643655,0.04874788,-0.076294936,-1.2842932,0.0062540774,229.39903,12.6908455,0.38340318,0.4202313,0.14766936,0.11996503,inf,inf,inf,inf,1,1,1,1,2,0,2,1,5,1,1,1,0,0
7013884000,7013884000,1032000,41.606704,-86.3556021,-0.80937976,33.383698,-12.455447,0.00034699737,0.00016040793,0.0,0.021783674,0.0065299254,-0.020690935,0.022859003,-0.0007508912,-0.012191404,-0.016614985,0.13670877,-0.08897971,-0.17961586,-1.2847399,0.0062540774,229.39903,12.667429,0.36424994,0.41606873,0.1387198,0.116424635,inf,inf,inf,inf,1,1,1,1,2,0,2,1,5,1,1,1,0,0
7014388000,7014388000,1032000,41.606704,-86.3556021,-0.78242385,33.386444,-12.447065,0.00034699737,0.00016040793,0.0,0.23955777,0.0042006965,-0.06016056,-0.012476835,-0.0007508912,-0.012191404,-0.016614985,0.8743879,0.013163577,-0.12863712,-1.285972,0.0062540774,229.39903,12.659047,0.36779585,0.41570646,0.14103779,0.11701911,inf,inf,inf,inf,1,1,1,1,2,0,2,1,5,1,1,1,0,0
7014892000,7014892000,1032000,41.606704,-86.3556021,-0.55212843,33.38293,-12.463404,0.00034699737,0.00016040793,0.0,0.8693166,0.0004635285,-0.11866087,-0.06790237,-0.0007508912,-0.012191404,-0.016614985,1.639755,0.038491663,-0.17842935,-1.289733,0.0062540774,229.39903,12.675385,0.3697352,0.41818354,0.1421708,0.11750145,inf,inf,inf,inf,1,1,1,1,2,0,2,1,5,1,1,1,0,0
7015388000,7015388000,1032000,41.606704,-86.3556021,0.018442929,33.368763,-12.49855,0.00034699737,0.00016040793,0.0,1.620437,-0.0019439275,-0.15520526,-0.09698071,-0.0007508912,-0.012191404,-0.016614985,1.394766,-0.011409067,0.012288738,-1.2917495,0.0062540774,229.39903,12.710532,0.3719933,0.4171498,0.14454217,0.11749045,inf,inf,inf,inf,1,1,1,1,2,0,2,1,5,1,1,1,0,0
7015892000,7015892000,1032000,41.606704,-86.3556021,0.9410837,33.351315,-12.543196,0.00034699737,0.00016040793,0.0,2.148448,0.015273234,-0.12841412,-0.07269782,-0.0007508912,-0.012191404,-0.016614985,0.84046483,0.096997246,0.010196056,-1.289778,0.0062540774,229.39903,12.7551775,0.37465456,0.41669416,0.146198,0.11758282,inf,inf,inf,inf,1,1,1,1,2,0,2,1,5,1,1,1,0,0
7016388000,7016388000,1032000,41.606704,-86.3556021,2.0593412,33.332787,-12.569688,0.00034699737,0.00016040793,0.0,2.4186096,0.028586164,-0.0778331,-0.026093794,-0.0007508912,-0.012191404,-0.016614985,0.37911916,0.038440347,0.27496454,-1.2933307,0.0062540774,229.39903,12.78167,0.37634456,0.4186065,0.14634658,0.117877245,inf,inf,inf,inf,1,1,1,1,2,0,2,1,5,1,1,1,0,0
7016892000,7016892000,1032000,41.606704,-86.3556021,3.2883856,33.312355,-12.577373,0.00034699737,0.00016040793,0.0,2.5191302,0.044083893,-0.04046872,0.0058657867,-0.0007508912,-0.012191404,-0.016614985,0.15105139,0.023538643,0.056351468,-1.2976317,0.0062540774,229.39903,12.789354,0.35978463,0.4153556,0.13788204,0.11479157,inf,inf,inf,inf,1,1,1,1,2,0,2,1,5,1,1,1,0,0
7017388000,7017388000,1032000,41.606704,-86.3556021,4.541107,33.31014,-12.581213,0.00034699737,0.00016040793,0.0,2.5537488,0.06892061,-0.012483038,0.022161957,-0.0007508912,-0.012191404,-0.016614985,0.09353457,0.07837345,0.034151535,-1.307986,0.0062540774,229.39903,12.793195,0.3819786,0.41993096,0.14771588,0.1188033,inf,inf,inf,inf,1,1,1,1,2,0,2,1,5,1,1,1,0,0
7017892000,7017892000,1032000,41.606704,-86.3556021,5.818728,33.317135,-12.578845,0.00034699737,0.00016040793,0.0,2.57068,0.069456875,-0.0014996015,0.023699587,-0.0007508912,-0.012191404,-0.016614985,-0.047722254,-0.022058751,-0.023125732,-1.3212061,0.0062540774,229.39903,12.790827,0.36383978,0.41640797,0.1388421,0.11557437,inf,inf,inf,inf,1,1,1,1,2,0,2,1,5,1,1,1,0,0
7018388000,7018388000,1032000,41.606704,-86.3556021,7.089446,33.334435,-12.577367,0.00034699737,0.00016040793,0.0,2.5714855,0.07570343,0.0056452393,0.021212995,-0.0007508912,-0.012191404,-0.016614985,0.04224241,0.038827475,-0.010301421,-1.3282412,0.0062540774,229.39903,12.789349,0.38762978,0.4213097,0.15015176,0.119895585,inf,inf,inf,inf,1,1,1,1,2,0,2,1,5,1,1,1,0,0
7018884000,7018884000,1032000,41.606704,-86.3556021,8.34147,33.352234,-12.576551,0.00034699737,0.00016040793,0.0,2.5523772,0.06365552,0.01310414,0.019607976,-0.0007508912,-0.012191404,-0.016614985,-0.042869948,-0.0035950926,-0.0404772,-1.3483459,0.0062540774,229.39903,12.788533,0.36722395,0.41424105,0.14030886,0.11597616,inf,inf,inf,inf,1,1,1,1,2,0,2,1,5,1,1,1,0,0
7019388000,7019388000,1032000,41.606704,-86.3556021,9.602505,33.36919,-12.572158,0.00034699737,0.00016040793,0.0,2.5525835,0.04801474,0.0042824117,0.00967471,-0.0007508912,-0.012191404,-0.016614985,-0.051849257,0.056488816,-0.05536253,-1.3601514,0.0062540774,229.39903,12.78414,0.370389,0.41679993,0.14235015,0.116842315,inf,inf,inf,inf,1,1,1,1,2,0,2,1,5,1,1,1,0,0
7019884000,7019884000,1032000,41.606704,-86.3556021,10.847682,33.383,-12.578672,0.00034699737,0.00016040793,0.0,2.5532196,0.042127043,0.0014249556,-0.0006900397,-0.0007508912,-0.012191404,-0.016614985,-0.11825294,0.062327333,0.20352371,-1.3685026,0.0062540774,229.39903,12.790654,0.37245235,0.41869074,0.1435508,0.11739244,inf,inf,inf,inf,1,1,1,1,2,0,2,1,5,1,1,1,0,0
7020388000,7020388000,1032000,41.606704,-86.3556021,12.072239,33.408936,-12.577969,0.00034699737,0.00016040793,0.0,2.371056,0.03720296,0.04999389,0.040565003,-0.0007508912,-0.012191404,-0.016614985,-0.73879516,-0.09654112,0.14379801,-1.3917665,0.0062540774,229.39903,12.78995,0.37493533,0.41814628,0.14488026,0.11769383,inf,inf,inf,inf,1,1,1,1,2,0,2,1,5,1,1,1,0,0
7020892000,7020892000,1032000,41.606704,-86.3556021,13.112464,33.434593,-12.559397,0.00034699737,0.00016040793,0.0,1.7884549,0.023296582,0.078962825,0.060338773,-0.0007508912,-0.012191404,-0.016614985,-1.5305396,-0.10832421,0.2540964,-1.4025075,0.0062540774,229.39903,12.7713785,0.3785075,0.42067727,0.14812697,0.11853548,inf,inf,inf,inf,1,1,1,1,2,0,2,1,5,1,1,1,0,0
7021388000,7021388000,1032000,41.606704,-86.3556021,13.79989,33.457375,-12.542808,0.00034699737,0.00016040793,0.0,1.0304756,0.018755369,0.058736105,0.032569256,-0.0007508912,-0.012191404,-0.016614985,-1.4669476,-0.089940526,-0.1238287,-1.4078918,0.0062540774,229.39903,12.754789,0.37965935,0.4223115,0.1503801,0.1187099,inf,inf,inf,inf,1,1,1,1,2,0,2,1,5,1,1,1,0,0
7021892000,7021892000,1032000,41.606704,-86.3556021,14.143494,33.49411,-12.545879,0.00034699737,0.00016040793,0.0,0.45422855,0.0057770303,0.021907428,-0.010618746,-0.0007508912,-0.012191404,-0.016614985,-0.8030896,-0.056883883,-0.00578637,-1.4310554,0.0062540774,229.39903,12.757861,0.3622084,0.4157367,0.14285272,0.115019135,inf,inf,inf,inf,1,1,1,1,2,0,2,1,5,1,1,1,0,0
7022388000,7022388000,1032000,41.606704,-86.3556021,14.260907,33.514297,-12.551829,0.00034699737,0.00016040793,0.0,0.13994326,-0.027540937,0.014446626,-0.015194436,-0.0007508912,-0.012191404,-0.016614985,-0.31062523,-0.16551448,-0.0694404,-1.4456583,0.0062540774,229.39903,12.763811,0.38466802,0.42321068,0.15335858,0.119209856,inf,inf,inf,inf,1,1,1,1,2,0,2,1,5,1,1,1,0,0
7022884000,7022884000,1032000,41.606704,-86.3556021,14.248886,33.52831,-12.550232,0.00034699737,0.00016040793,0.0,0.019485507,-0.0491708,0.0061420696,-0.013297408,-0.0007508912,-0.012191404,-0.016614985,-0.05101077,-0.03398054,-0.087011665,-1.4578209,0.0062540774,229.39903,12.762214,0.36504778,0.41588035,0.14214563,0.11537004,inf,inf,inf,inf,1,1,1,1,2,0,2,1,5,1,1,1,0,0
7023388000,7023388000,1032000,41.606704,-86.3556021,14.2026205,33.535217,-12.5310755,0.00034699737,0.00016040793,0.0,-0.041898903,-0.021008603,0.045593116,0.04150994,-0.0007508912,-0.012191404,-0.016614985,-0.18455933,0.10419489,-0.07710612,-1.4632977,0.0062540774,229.39903,12.743057,0.36852437,0.41822946,0.14299273,0.11634154,inf,inf,inf,inf,1,1,1,1,2,0,2,1,5,1,1,1,0,0
7023892000,7023892000,1032000,41.606704,-86.3556021,14.141245,33.55284,-12.505938,0.00034699737,0.00016040793,0.0,-0.06761131,-0.009826171,0.058526553,0.059016902,-0.0007508912,-0.012191404,-0.016614985,0.050042663,-0.16309817,0.07901427,-1.4618386,0.0062540774,229.39903,12.717919,0.37036657,0.4174207,0.14270657,0.1166492,inf,inf,inf,inf,1,1,1,1,2,0,2,1,5,1,1,1,0,0
7024388000,7024388000,1032000,41.606704,-86.3556021,14.053377,33.536564,-12.423787,0.00034699737,0.00016040793,0.0,-0.18739296,-0.21112496,0.28198886,0.28260347,-0.0007508912,-0.012191404,-0.016614985,-0.4423088,-0.88713014,0.5959085,-1.4668149,0.0062540774,229.39903,12.635769,0.37255248,0.4191979,0.14288403,0.11735899,inf,inf,inf,inf,1,1,1,1,2,0,2,1,5,1,1,1,0,0
7024884000,7024884000,1032000,41.606704,-86.3556021,13.871472,33.320347,-12.242439,0.00034699737,0.00016040793,0.0,-0.4632953,-0.80605644,0.39536247,0.4007694,-0.0007508912,-0.012191404,-0.016614985,-0.6036063,-1.5333173,0.12822722,-1.4660481,0.0062540774,229.39903,12.454421,0.37430128,0.41798115,0.14371966,0.11746603,inf,inf,inf,inf,1,1,1,1,2,0,2,1,5,1,1,1,0,0
7025388000,7025388000,1032000,41.606704,-86.3556021,13.541221,32.755295,-12.007587,0.00034699737,0.00016040793,0.0,-0.70195436,-1.5218717,0.45983952,0.48129106,-0.0007508912,-0.012191404,-0.016614985,-0.31399703,-1.3022307,0.14960293,-1.4733698,0.0062540774,229.39903,12.219569,0.37658057,0.41740468,0.14565687,0.11754129,inf,inf,inf,inf,1,1,1,1,2,0,2,1,5,1,1,1,0,0
7025884000,7025884000,1032000,41.606704,-86.3556021,13.122963,31.887383,-11.712972,0.00034699737,0.00016040793,0.0,-0.8305109,-2.028703,0.5470108,0.59374917,-0.0007508912,-0.012191404,-0.016614985,-0.14392349,-0.7803962,0.2023428,-1.4823215,0.0062540774,229.39903,11.924953,0.35924786,0.4135765,0.13792598,0.11417342,inf,inf,inf,inf,1,1,1,1,2,0,2,1,5,1,1,1,0,0
7026388000,7026388000,1032000,41.606704,-86.3556021,12.662137,30.794823,-11.380866,0.00034699737,0.00016040793,0.0,-0.8932981,-2.328565,0.623016,0.67685086,-0.0007508912,-0.012191404,-0.016614985,-0.14241186,-0.4730303,0.10567058,-1.484295,0.0062540774,229.39903,11.592848,0.38194117,0.42158383,0.14853743,0.11856252,inf,inf,inf,inf,1,1,1,1,2,0,2,1,5,1,1,1,0,0
7026892000,7026892000,1032000,41.606704,-86.3556021,12.164403,29.586252,-11.007424,0.00034699737,0.00016040793,0.0,-0.93153816,-2.472788,0.67784077,0.7422028,-0.0007508912,-0.012191404,-0.016614985,0.022711901,-0.14323224,-0.006889056,-1.489243,0.0062540774,229.39903,11.219406,0.363797,0.4149455,0.13951237,0.114948906,inf,inf,inf,inf,1,1,1,1,2,0,2,1,5,1,1,1,0,0
7027388000,7027388000,1032000,41.606704,-86.3556021,11.668901,28.343111,-10.616444,0.00034699737,0.00016040793,0.0,-0.9401926,-2.5187166,0.6895926,0.76440966,-0.0007508912,-0.012191404,-0.016614985,0.021660952,-0.16285741,-0.094672725,-1.4773557,0.0062540774,229.39903,10.828425,0.38746706,0.422579,0.15088561,0.11956402,inf,inf,inf,inf,1,1,1,1,2,0,2,1,5,1,1,1,0,0
7027892000,7027892000,1032000,41.606704,-86.3556021,11.166819,27.05144,-10.215588,0.00034699737,0.00016040793,0.0,-0.95533365,-2.5433779,0.7033642,0.784963,-0.0007508912,-0.012191404,-0.016614985,-0.042916693,0.04156965,0.012103405,-1.4781617,0.0062540774,229.39903,10.427569,0.3677827,0.41590106,0.14133896,0.11586683,inf,inf,inf,inf,1,1,1,1,2,0,2,1,5,1,1,1,0,0
7028388000,7028388000,1032000,41.606704,-86.3556021,10.671982,25.782333,-9.817115,0.00034699737,0.00016040793,0.0,-0.97504795,-2.545551,0.6928191,0.7809876,-0.0007508912,-0.012191404,-0.016614985,0.011807325,0.0132276025,-0.05756697,-1.4685404,0.0062540774,229.39903,10.029097,0.37028432,0.41767755,0.14320232,0.11659619,inf,inf,inf,inf,1,1,1,1,2,0,2,1,5,1,1,1,0,0
7028884000,7028884000,1032000,41.606704,-86.3556021,10.174525,24.511557,-9.423778,0.00034699737,0.00016040793,0.0,-0.98800963,-2.5358894,0.68345976,0.7750061,-0.0007508912,-0.012191404,-0.016614985,-0.051303107,0.0061536985,-0.0352292,-1.4490092,0.0062540774,229.39903,9.635759,0.3723707,0.4164402,0.14456673,0.116868466,inf,inf,inf,inf,1,1,1,1,2,0,2,1,5,1,1,1,0,0
7029388000,7029388000,1032000,41.606704,-86.3556021,9.670617,23.228508,-9.017528,0.00034699737,0.00016040793,0.0,-1.0039059,-2.528574,0.67261255,0.77614015,-0.0007508912,-0.012191404,-0.016614985,-0.06589097,-0.035779078,-0.043922164,-1.4479775,0.0062540774,229.39903,9.229509,0.37488753,0.41883168,0.14606372,0.11758436,inf,inf,inf,inf,1,1,1,1,2,0,2,1,5,1,1,1,0,0
7029892000,7029892000,1032000,41.606704,-86.3556021,9.167434,21.950832,-8.622602,0.00034699737,0.00016040793,0.0,-1.0187981,-2.5180795,0.6468206,0.75498635,-0.0007508912,-0.012191404,-0.016614985,0.011431811,0.02286647,-0.079688676,-1.4333905,0.0062540774,229.39903,8.834584,0.3784528,0.4184328,0.14839828,0.118125856,inf,inf,inf,inf,1,1,1,1,2,0,2,1,5,1,1,1,0,0
7030388000,7030388000,1032000,41.606704,-86.3556021,8.670271,20.69616,-8.242098,0.00034699737,0.00016040793,0.0,-1.0216491,-2.5023572,0.6418915,0.753147,-0.0007508912,-0.012191404,-0.016614985,-0.029580733,0.034545157,-0.08951599,-1.4158247,0.0062540774,229.39903,8.45408,0.37963465,0.4201414,0.14871323,0.118430674,inf,inf,inf,inf,1,1,1,1,2,0,2,1,5,1,1,1,0,0
7030884000,7030884000,1032000,41.606704,-86.3556021,8.17762,19.444717,-7.861075,0.00034699737,0.00016040793,0.0,-1.0340215,-2.4957805,0.63556886,0.75228196,-0.0007508912,-0.012191404,-0.016614985,-0.040450916,0.011193726,-0.0029868146,-1.4123058,0.0062540774,229.39903,8.073056,0.36152923,0.41331866,0.14009283,0.1147207,inf,inf,inf,inf,1,1,1,1,2,0,2,1,5,1,1,1,0,0
7031388000,7031388000,1032000,41.606704,-86.3556021,7.6639123,18.17901,-7.4899983,0.00034699737,0.00016040793,0.0,-1.0562476,-2.4918497,0.6231701,0.73257005,-0.0007508912,-0.012191404,-0.016614985,-0.016243322,-0.036541887,-0.055029117,-1.3934692,0.0062540774,229.39903,7.7019796,0.38608873,0.42182276,0.15237635,0.11943417,inf,inf,inf,inf,1,1,1,1,2,0,2,1,5,1,1,1,0,0
7031884000,7031884000,1032000,41.606704,-86.3556021,7.149942,16.943483,-7.128801,0.00034699737,0.00016040793,0.0,-1.0530893,-2.476626,0.63548476,0.7392796,-0.0007508912,-0.012191404,-0.016614985,-0.06504528,0.09323113,-0.08052221,-1.3776984,0.0062540774,229.39903,7.340782,0.36598355,0.41475752,0.14210965,0.11540471,inf,inf,inf,inf,1,1,1,1,2,0,2,1,5,1,1,1,0,0
7032388000,7032388000,1032000,41.606704,-86.3556021,6.6292357,15.683912,-6.756673,0.00034699737,0.00016040793,0.0,-1.0538924,-2.4877324,0.63648444,0.73742336,-0.0007508912,-0.012191404,-0.016614985,-0.04281321,0.009453209,-0.06751722,-1.3717252,0.0062540774,229.39903,6.968654,0.3693452,0.4145439,0.14396703,0.115802765,inf,inf,inf,inf,1,1,1,1,2,0,2,1,5,1,1,1,0,0
7032884000,7032884000,1032000,41.606704,-86.3556021,6.1148844,14.444114,-6.3981075,0.00034699737,0.00016040793,0.0,-1.049896,-2.4857497,0.65345055,0.74622947,-0.0007508912,-0.012191404,-0.016614985,-0.08945594,-0.15131032,-0.078046754,-1.3511516,0.0062540774,229.39903,6.610089,0.37043148,0.41638866,0.14386806,0.115964204,inf,inf,inf,inf,1,1,1,1,2,0,2,1,5,1,1,1,0,0
7033388000,7033388000,1032000,41.606704,-86.3556021,5.5880475,13.19055,-6.027169,0.00034699737,0.00016040793,0.0,-1.0473319,-2.4826818,0.6522981,0.7408073,-0.0007508912,-0.012191404,-0.016614985,-0.073447526,-0.104533896,-0.14553224,-1.3367118,0.0062540774,229.39903,6.2391505,0.37331763,0.41887838,0.14528838,0.11647707,inf,inf,inf,inf,1,1,1,1,2,0,2,1,5,1,1,1,0,0
7033892000,7033892000,1032000,41.606704,-86.3556021,5.0598435,11.933269,-5.6595182,0.00034699737,0.00016040793,0.0,-1.0345386,-2.484109,0.65662295,0.7394723,-0.0007508912,-0.012191404,-0.016614985,-0.15685408,-0.041858934,-0.15013391,-1.3236593,0.0062540774,229.39903,5.8714995,0.37718153,0.41842663,0.14744537,0.116783835,inf,inf,inf,inf,1,1,1,1,2,0,2,1,5,1,1,1,0,0
7034388000,7034388000,1032000,41.606704,-86.3556021,4.5377045,10.694424,-5.2938476,0.00034699737,0.00016040793,0.0,-1.0336156,-2.4919384,0.6673385,0.7487603,-0.0007508912,-0.012191404,-0.016614985,-0.11403807,-0.044051345,-0.14769012,-1.3013303,0.0062540774,229.39903,5.505829,0.3784899,0.42005488,0.14750221,0.116876386,inf,inf,inf,inf,1,1,1,1,2,0,2,1,5,1,1,1,0,0
7034892000,7034892000,1032000,41.606704,-86.3556021,3.994276,9.420609,-4.909469,0.00034699737,0.00016040793,0.0,-1.0310206,-2.5018353,0.66776466,0.75519675,-0.0007508912,-0.012191404,-0.016614985,-0.0083269635,-0.05002827,-0.022819327,-1.2920141,0.0062540774,229.39903,5.1214504,0.36124238,0.413656,0.1392271,0.11327461,inf,inf,inf,inf,1,1,1,1,2,0,2,1,5,1,1,1,0,0
7035388000,7035388000,1032000,41.606704,-86.3556021,3.4682138,8.166388,-4.541408,0.00034699737,0.00016040793,0.0,-1.007374,-2.4808702,0.6603455,0.7442904,-0.0007508912,-0.012191404,-0.016614985,0.009849049,-0.05053578,-0.09640685,-1.2746964,0.0062540774,229.39903,4.7533894,0.383653,0.4210297,0.14979187,0.11718531,inf,inf,inf,inf,1,1,1,1,2,0,2,1,5,1,1,1,0,0
7035884000,7035884000,1032000,41.606704,-86.3556021,2.9556413,6.914408,-4.1705036,0.00034699737,0.00016040793,0.0,-0.9954248,-2.4762435,0.6635968,0.74759394,-0.0007508912,-0.012191404,-0.016614985,0.045930266,0.03698355,-0.1593838,-1.2572484,0.0062540774,229.39903,4.382485,0.36438566,0.41676167,0.14039993,0.11362875,inf,inf,inf,inf,1,1,1,1,2,0,2,1,5,1,1,1,0,0
7036388000,7036388000,1032000,41.606704,-86.3556021,2.43444,5.644447,-3.7976289,0.00034699737,0.00016040793,0.0,-1.0002801,-2.4754937,0.6669156,0.7472599,-0.0007508912,-0.012191404,-0.016614985,-0.1275768,0.025564326,-0.04038593,-1.2507262,0.0062540774,229.39903,4.00961,0.36797667,0.41607267,0.14251602,0.113906905,inf,inf,inf,inf,1,1,1,1,2,0,2,1,5,1,1,1,0,0
7036892000,7036892000,1032000,41.606704,-86.3556021,1.9122325,4.3753138,-3.4280047,0.00034699737,0.00016040793,0.0,-1.0052154,-2.4841354,0.67723054,0.750952,-0.0007508912,-0.012191404,-0.016614985,-0.086028576,-0.016509408,-0.059993997,-1.230412,0.0062540774,229.39903,3.639986,0.3699319,0.4182875,0.14290555,0.11422984,inf,inf,inf,inf,1,1,1,1,2,0,2,1,5,1,1,1,0,0
7037388000,7037388000,1032000,41.606704,-86.3556021,1.4025326,3.1273046,-3.0620387,0.00034699737,0.00016040793,0.0,-0.9945713,-2.4743757,0.67927855,0.74762905,-0.0007508912,-0.012191404,-0.016614985,0.0021032996,0.078435175,-0.07569144,-1.2071667,0.0062540774,229.39903,3.27402,0.37218857,0.41708177,0.14405592,0.11424921,inf,inf,inf,inf,1,1,1,1,2,0,2,1,5,1,1,1,0,0
7037884000,7037884000,1032000,41.606704,-86.3556021,0.9012393,1.8965162,-2.7022998,0.00034699737,0.00016040793,0.0,-0.99783593,-2.4435694,0.69977736,0.75709116,-0.0007508912,-0.012191404,-0.016614985,-0.0639044,0.15885843,-0.04654663,-1.197691,0.0062540774,229.39903,2.9142811,0.3740838,0.41879556,0.14472583,0.11454172,inf,inf,inf,inf,1,1,1,1,2,0,2,1,5,1,1,1,0,0
7038388000,7038388000,1032000,41.606704,-86.3556021,0.3891703,0.6922742,-2.3271947,0.00034699737,0.00016040793,0.0,-0.9896988,-2.2183545,0.7694802,0.8114988,-0.0007508912,-0.012191404,-0.016614985,0.14033625,0.870583,0.013224717,-1.184754,0.0062540774,229.39903,2.539176,0.3764742,0.41801247,0.14561005,0.114613205,inf,inf,inf,inf,1,1,1,1,2,0,2,1,5,1,1,1,0,0
7038892000,7038892000,1032000,41.606704,-86.3556021,-0.08849104,-0.31079227,-1.9358796,0.00034699737,0.00016040793,0.0,-0.833231,-1.5871624,0.658637,0.6967092,-0.0007508912,-0.012191404,-0.016614985,0.4833962,1.5169879,-0.75402856,-1.1586657,0.0062540774,229.39903,2.147861,0.35987028,0.4147919,0.13886902,0.11175594,inf,inf,inf,inf,1,1,1,1,2,0,2,1,5,1,1,1,0,0
7039388000,7039388000,1032000,41.606704,-86.3556021,-0.43253946,-0.9367349,-1.6788745,0.00034699737,0.00016040793,0.0,-0.52323174,-0.83868873,0.32499674,0.35999542,-0.0007508912,-0.012191404,-0.016614985,0.65234405,1.4196203,-0.6765854,-1.1422468,0.0062540774,229.39903,1.8908558,0.38229105,0.4190564,0.15198456,0.11542097,inf,inf,inf,inf,1,1,1,1,2,0,2,1,5,1,1,1,0,0
7039892000,7039892000,1032000,41.606704,-86.3556021,-0.61717635,-1.2464882,-1.5671138,0.00034699737,0.00016040793,0.0,-0.23247336,-0.2742757,0.10530379,0.13546704,-0.0007508912,-0.012191404,-0.016614985,0.46176097,0.83045113,-0.26071262,-1.1197805,0.0062540774,229.39903,1.779095,0.36388963,0.4156268,0.1436098,0.11255659,inf,inf,inf,inf,1,1,1,1,2,0,2,1,5,1,1,1,0,0
7040388000,7040388000,1032000,41.606704,-86.3556021,-0.671455,-1.3176339,-1.5367098,0.00034699737,0.00016040793,0.0,-0.05498101,0.030406928,0.018813567,0.041055657,-0.0007508912,-0.012191404,-0.016614985,0.15804344,0.36335078,-0.14669639,-1.0960492,0.0062540774,229.39903,1.7486911,0.38820833,0.42011607,0.15533039,0.116783366,inf,inf,inf,inf,1,1,1,1,2,0,2,1,5,1,1,1,0,0
7040884000,7040884000,1032000,41.606704,-86.3556021,-0.6563865,-1.283223,-1.5441707,0.00034699737,0.00016040793,0.0,0.012685999,0.12792444,0.012688356,0.01658851,-0.0007508912,-0.012191404,-0.016614985,-0.056219492,0.06403214,-0.08863962,-1.097449,0.0062540774,229.39903,1.756152,0.3674909,0.41595927,0.14314732,0.11388748,inf,inf,inf,inf,1,1,1,1,2,0,2,1,5,1,1,1,0,0
7041388000,7041388000,1032000,41.606704,-86.3556021,-0.6236982,-1.2217656,-1.4827535,0.00034699737,0.00016040793,0.0,0.029510254,0.1423026,0.5455154,0.5270302,-0.0007508912,-0.012191404,-0.016614985,-0.026530325,-0.11233838,2.094474,-1.1000087,0.0062540774,229.39903,1.6947348,0.37071258,0.4154098,0.14251561,0.114896454,inf,inf,inf,inf,1,1,1,1,2,0,2,1,5,1,1,1,0,0
7041892000,7041892000,1032000,41.606704,-86.3556021,-0.5979054,-1.1759906,-1.1229103,0.00034699737,0.00016040793,0.0,-0.0027886943,0.06146833,0.7491223,0.71378297,-0.0007508912,-0.012191404,-0.016614985,-0.21217664,-0.2960141,-1.750554,-1.0994931,0.0062540774,229.39903,1.3348916,0.37336013,0.41787332,0.14196274,0.116171725,inf,inf,inf,inf,1,1,1,1,2,0,2,1,5,1,1,1,0,0
7042388000,7042388000,1032000,41.606704,-86.3556021,-0.5900869,-1.1572741,-0.8087689,0.00034699737,0.00016040793,0.0,-0.02662397,0.018153602,0.6896926,0.6440865,-0.0007508912,-0.012191404,-0.016614985,-0.066476,-0.087476194,0.018913234,-1.0976899,0.0062540774,229.39903,1.0207503,0.37509716,0.4168242,0.1432488,0.11680475,inf,inf,inf,inf,1,1,1,1,2,0,2,1,5,1,1,1,0,0
7042892000,7042892000,1032000,41.606704,-86.3556021,-0.5937511,-1.1602428,-0.49867505,0.00034699737,0.00016040793,0.0,-0.036580414,-0.031040518,0.7149714,0.65801495,-0.0007508912,-0.012191404,-0.016614985,0.05275798,-0.055379506,0.07863522,-1.096737,0.0062540774,229.39903,0.7106564,0.37852946,0.41946712,0.1453583,0.11807516,inf,inf,inf,inf,1,1,1,1,2,0,2,1,5,1,1,1,0,0
7043388000,7043388000,1032000,41.606704,-86.3556021,-0.6001621,-1.1817746,-0.17316525,0.00034699737,0.00016040793,0.0,-0.03231029,-0.049854834,0.7145033,0.6593691,-0.0007508912,-0.012191404,-0.016614985,0.05005644,-0.029409198,0.15338597,-1.0962594,0.0062540774,229.39903,0.38514656,0.37956792,0.418223,0.14579001,0.11833982,inf,inf,inf,inf,1,1,1,1,2,0,2,1,5,1,1,1,0,0
7043892000,7043892000,1032000,41.606704,-86.3556021,-0.6036403,-1.2062193,0.15052658,0.00034699737,0.00016040793,0.0,-0.03537194,-0.056326944,0.7153599,0.6551171,-0.0007508912,-0.012191404,-0.016614985,0.07636709,-0.050090224,0.09879369,-1.0965221,0.0062540774,229.39903,0.1,0.36217108,0.4148952,0.13812539,0.11540564,inf,inf,inf,inf,1,1,1,1,2,0,2,1,5,1,1,1,0,0
7044388000,7044388000,1032000,41.606704,-86.3556021,-0.618258,-1.2267001,0.2852237,0.00034699737,0.00016040793,0.0,-0.026981346,-0.0044859,0.12264096,0.12214101,-0.0007508912,-0.012191404,-0.016614985,0.03660835,-0.012968729,-0.2852008,-1.0987473,0.0062540774,229.39903,0.108974665,0.38585672,0.42224076,0.15238956,0.113624215,inf,inf,inf,inf,1,1,1,1,2,0,2,1,5,1,1,1,0,0
7044884000,7044884000,1032000,41.606704,-86.3556021,-0.6218712,-1.2374808,0.3159492,0.00034699737,0.00016040793,0.0,-0.027063193,-0.006068642,0.13381982,0.101430885,-0.0007508912,-0.012191404,-0.016614985,-0.016677082,-0.10003957,-0.7135775,-1.0976185,0.0062540774,229.39903,0.1,0.36590803,0.4149457,0.14428823,0.10379954,inf,inf,inf,inf,1,1,1,1,2,0,2,1,5,1,1,1,0,0
7045388000,7045388000,1032000,41.606704,-86.3556021,-0.6204069,-1.2417172,0.31179398,0.00034699737,0.00016040793,0.0,-0.0177415,-0.008756078,0.12971143,0.054857712,-0.0007508912,-0.012191404,-0.016614985,0.079209276,0.09780265,0.025566602,-1.0972383,0.0062540774,229.39903,0.1,0.36926055,0.4134098,0.15005717,0.10029973,inf,inf,inf,inf,1,1,1,1,2,0,2,1,5,1,1,1,0,0
7045892000,7045892000,1032000,41.606704,-86.3556021,-0.6207025,-1.2427648,0.32166937,0.00034699737,0.00016040793,0.0,-0.0069381935,-0.010049267,0.13751279,0.04848754,-0.0007508912,-0.012191404,-0.016614985,0.01779908,-0.038823634,-0.8030189,-1.0975235,0.0062540774,229.39903,0.1,0.37123314,0.41434416,0.15388855,0.09922171,inf,inf,inf,inf,1,1,1,1,2,0,2,1,5,1,1,1,0,0
7046388000,7046388000,1032000,41.606704,-86.3556021,-0.61649626,-1.2418953,0.32123473,0.00034699737,0.00016040793,0.0,-0.002382696,-0.010408231,0.13146643,0.027181838,-0.0007508912,-0.012191404,-0.016614985,-0.014434732,0.0069950675,0.21008116,-1.0973804,0.0062540774,229.39903,0.1,0.37357837,0.4116832,0.15753756,0.099572286,inf,inf,inf,inf,1,1,1,1,2,0,2,1,5,0,1,1,1,0
7046892000,7046892000,1032000,41.606704,-86.3556021,-0.61245745,-1.2395445,0.20060703,0.00034699737,0.00016040793,0.0,0.0031937947,-0.006653276,0.07620325,-0.14805225,-0.0007508912,-0.012191404,-0.016614985,-0.041505974,-0.05735919,-0.019515928,-1.0973731,0.0062540774,229.39903,0.1,0.30204687,0.32124704,0.0150316935,0.0109818205,inf,inf,inf,inf,1,1,1,1,2,0,2,1,5,0,1,1,1,0
7047388000,7047388000,1032000,41.606704,-86.3556021,-0.6070257,-1.2358704,-0.0045463396,0.00034699737,0.00016040793,0.0,0.0041656336,0.00091558835,0.0014328654,-0.28238788,-0.0007508912,-0.012191404,-0.016614985,0.0317883,0.0911616,0.031291444,-1.0973501,0.0062540774,229.39903,0.111355625,0.28368008,0.3074732,0.020386659,0.014422306,inf,inf,inf,inf,1,1,1,1,2,0,2,1,5,0,1,1,1,0
7047892000,7047892000,1032000,41.606704,-86.3556021,-0.6024269,-1.2299678,-0.019858982,0.00034699737,0.00016040793,0.0,0.0068473564,0.0048752124,-0.0059378883,-0.17377229,-0.0007508912,-0.012191404,-0.016614985,0.009944644,-0.058304913,0.024286034,-1.0973852,0.0062540774,229.39903,0.14682844,0.2648215,0.29498348,0.011525062,0.00818574,inf,inf,inf,inf,1,1,1,1,2,0,2,1,5,0,1,1,1,0
7048388000,7048388000,1032000,41.606704,-86.3556021,-0.59487045,-1.2262266,-0.0021303892,0.00034699737,0.00016040793,0.0,0.008024182,0.0011093743,-0.0056260214,-0.08604775,-0.0007508912,-0.012191404,-0.016614985,-0.014711543,-0.038488466,0.6206426,-1.0970803,0.0062540774,229.39903,0.14009076,0.25919944,0.2862431,0.017588366,0.012590324,inf,inf,inf,inf,1,1,1,1,2,0,2,1,5,0,1,1,1,0
7048884000,7048884000,1032000,41.606704,-86.3556021,-0.59325737,-1.2270453,0.01730029,0.00034699737,0.00016040793,0.0,-0.0008239703,0.0013792869,-0.006853912,-0.038832285,-0.0007508912,-0.012191404,-0.016614985,0.06897635,0.09843925,0.0054826327,-1.0969845,0.0062540774,229.39903,0.131715,0.24633294,0.27758047,0.005802567,0.0041111996,inf,inf,inf,inf,1,1,1,1,2,0,2,1,5,0,1,1,1,0
