timestamp,timestamp_sample,ref_timestamp,ref_lat,ref_lon,x,y,z,delta_xy[0],delta_xy[1],delta_z,vx,vy,vz,z_deriv,delta_vxy[0],delta_vxy[1],delta_vz,ax,ay,az,heading,delta_heading,ref_alt,dist_bottom,eph,epv,evh,evv,vxy_max,vz_max,hagl_min,hagl_max,xy_valid,z_valid,v_xy_valid,v_z_valid,xy_reset_counter,z_reset_counter,vxy_reset_counter,vz_reset_counter,heading_reset_counter,heading_good_for_control,xy_global,z_global,dist_bottom_valid,dist_bottom_sensor_bitfield
6971372000,6971372000,1032000,41.606704,-86.3556021,-0.64523524,-1.3878518,0.112215355,0.00034660974,0.00016096387,0.0,-0.00083812425,-0.002437642,0.0030287676,0.0017466084,-0.0007434996,-0.01219567,-0.016614992,-0.08417054,-0.011790549,0.03978231,-1.0529845,0.008903324,229.39903,0.1,0.084857,0.10244347,0.007045324,0.005000275,inf,inf,inf,inf,1,1,1,1,2,0,2,1,4,0,1,1,1,0
6971876000,6971876000,1032000,41.606704,-86.3556021,-0.646027,-1.3872166,0.1103684,0.00034660974,0.00016096387,0.0,-0.0018079932,-0.0013653561,-0.002052106,-0.0031872364,-0.0007434996,-0.01219567,-0.016614992,0.004651236,0.00930816,0.123323806,-1.0525739,0.008903324,229.39903,0.10043988,0.08457654,0.10206063,0.015288656,0.0109861735,inf,inf,inf,inf,1,1,1,1,2,0,2,1,4,0,1,1,1,0
6972380000,6972380000,1032000,41.606704,-86.3556021,-0.64575493,-1.3865526,0.110791445,0.00034660974,0.00016096387,0.0,0.00078581716,0.00088289834,0.0030233173,0.0028309645,-0.0007434996,-0.01219567,-0.016614992,-0.02391371,0.028738745,0.16443983,-1.0522588,0.008903324,229.39903,0.100693464,0.084320225,0.10173442,0.020821558,0.015116204,inf,inf,inf,inf,1,1,1,1,2,0,2,1,4,0,1,1,1,0
6972876000,6972876000,1032000,41.606704,-86.3556021,-0.6452836,-1.3869529,0.111884445,0.00034660974,0.00016096387,0.0,0.0035743564,-0.0011407032,0.0038437746,0.0037474623,-0.0007434996,-0.01219567,-0.016614992,-0.07091189,-0.03691286,0.43241486,-1.051693,0.008903324,229.39903,0.1001032,0.08401977,0.101348124,0.012174194,0.008700984,inf,inf,inf,inf,1,1,1,1,2,0,2,1,4,0,1,1,1,0
6973380000,6973380000,1032000,41.606704,-86.3556021,-0.64520425,-1.3871797,0.112937994,0.00034660974,0.00016096387,0.0,-0.0017750782,-0.0006924372,0.0033461358,0.0022476683,-0.0007434996,-0.01219567,-0.016614992,-0.073730476,0.025977349,0.0033862256,-1.0516206,0.008903324,229.39903,0.1,0.0837577,0.10102391,0.01846148,0.013342054,inf,inf,inf,inf,1,1,1,1,2,0,2,1,4,0,1,1,1,0
6973876000,6973876000,1032000,41.606704,-86.3556021,-0.64595044,-1.3876112,0.111492366,0.00034660974,0.00016096387,0.0,-0.0024992155,-0.0031832652,0.0016627022,0.00021273302,-0.0007434996,-0.01219567,-0.016614992,-0.028389549,0.008397499,-0.53116214,-1.0515771,0.008903324,229.39903,0.1,0.08333257,0.10065194,0.008108384,0.005762254,inf,inf,inf,inf,1,1,1,1,2,0,2,1,4,0,1,1,1,0
6974380000,6974380000,1032000,41.606704,-86.3556021,-0.6469615,-1.3877573,0.112248816,0.00034660974,0.00016096387,0.0,-0.0014604586,-0.0031247642,0.006269635,0.0048271767,-0.0007434996,-0.01219567,-0.016614992,-0.014113999,-0.016408084,0.04615256,-1.0516905,0.008903324,229.39903,0.1,0.08321332,0.100289956,0.01585193,0.011402189,inf,inf,inf,inf,1,1,1,1,2,0,2,1,4,0,1,1,1,0
6974876000,6974876000,1032000,41.606704,-86.3556021,-0.64474165,-1.3862216,0.11139377,0.00034660974,0.00016096387,0.0,0.0034390541,0.00248593,0.00016315328,-0.0015801496,-0.0007434996,-0.01219567,-0.016614992,-0.066474535,-0.104751095,-0.011710512,-1.0514392,0.008903324,229.39903,0.10014961,0.08282842,0.09998113,0.020807015,0.015111626,inf,inf,inf,inf,1,1,1,1,2,0,2,1,4,0,1,1,1,0
6975372000,6975372000,1032000,41.606704,-86.3556021,-0.6450479,-1.3858725,0.11093108,0.00034660974,0.00016096387,0.0,-0.0010813521,0.002476685,-0.00014747563,-0.0010192198,-0.0007434996,-0.01219567,-0.016614992,-0.09801181,-0.02525115,-0.5187579,-1.0510228,0.008903324,229.39903,0.100398436,0.08254349,0.09961426,0.0121771945,0.008700976,inf,inf,inf,inf,1,1,1,1,2,0,2,1,4,0,1,1,1,0
6975876000,6975876000,1032000,41.606704,-86.3556021,-0.6464655,-1.3850529,0.11068656,0.00034660974,0.00016096387,0.0,-0.00045359487,0.007423166,0.000590937,0.00031419902,-0.0007434996,-0.01219567,-0.016614992,-0.022218345,-0.0004258745,0.61025834,-1.0513521,0.008903324,229.39903,0.10081283,0.08229709,0.09930729,0.018454053,0.013339912,inf,inf,inf,inf,1,1,1,1,2,0,2,1,4,0,1,1,1,0
6976380000,6976380000,1032000,41.606704,-86.3556021,-0.64614385,-1.3859622,0.110281,0.00034660974,0.00016096387,0.0,-0.0010166093,0.0032844052,-0.0053715827,-0.005362979,-0.0007434996,-0.01219567,-0.016614992,0.14255847,0.092597924,-0.8815015,-1.0509806,0.008903324,229.39903,0.10085451,0.08208578,0.09897816,0.023433346,0.017097741,inf,inf,inf,inf,1,1,1,1,2,0,2,1,4,0,1,1,1,0
6976876000,6976876000,1032000,41.606704,-86.3556021,-0.6473753,-1.3853797,0.11080912,0.00034660974,0.00016096387,0.0,-0.0066629485,0.0048991074,-0.008660169,-0.008453263,-0.0007434996,-0.01219567,-0.016614992,0.0587825,0.068331376,-1.7941604,-1.0510601,0.008903324,229.39903,0.10032639,0.08377342,0.099590376,0.045101095,0.0340111,inf,inf,inf,inf,1,1,1,1,2,0,2,1,4,0,1,1,1,0
6977372000,6977372000,1032000,41.606704,-86.3556021,-0.65329957,-1.3755215,0.083145,0.00034660974,0.00016096387,0.0,-0.018525401,0.041522827,-0.3092538,-0.3090682,-0.0007434996,-0.01219567,-0.016614992,-0.019909844,0.15577659,-1.9497974,-1.0574495,0.008903324,229.39903,0.12885001,0.091694646,0.10348008,0.06425691,0.04871097,inf,inf,inf,inf,1,1,1,1,2,0,2,1,4,0,1,1,1,0
6977876000,6977876000,1032000,41.606704,-86.3556021,-0.6595939,-1.3516436,-0.32722923,0.00034660974,0.00016096387,0.0,-0.0074838423,0.029122267,-1.3280706,-1.3263336,-0.0007434996,-0.01219567,-0.016614992,0.038820855,-0.053416908,-2.0498307,-1.056832,0.008903324,229.39903,0.53922427,0.10910774,0.1133277,0.08365232,0.062047936,inf,inf,inf,inf,1,1,1,1,2,0,2,1,4,0,1,1,1,0
6978372000,6978372000,1032000,41.606704,-86.3556021,-0.6579083,-1.3459321,-1.0470241,0.00034660974,0.00016096387,0.0,0.005490518,-0.00330741,-1.2365139,-1.2350918,-0.0007434996,-0.01219567,-0.016614992,-0.04392766,-0.07813083,1.1536393,-1.0559418,0.008903324,229.39903,1.2590191,0.13894002,0.13103165,0.101921484,0.07518416,inf,inf,inf,inf,1,1,1,1,2,0,2,1,4,0,1,1,1,0
6978876000,6978876000,1032000,41.606704,-86.3556021,-0.6532853,-1.3500075,-1.5342927,0.00034660974,0.00016096387,0.0,0.0043318425,-0.010408663,-0.72728604,-0.7287428,-0.0007434996,-0.01219567,-0.016614992,-0.05054011,-0.040020283,0.6947749,-1.0517131,0.0036438024,229.39903,1.7462877,0.16898471,0.15437782,0.105618685,0.08508019,inf,inf,inf,inf,1,1,1,1,2,0,2,1,5,0,1,1,1,0
6979380000,6979380000,1032000,41.606704,-86.3556021,-0.6509032,-1.357467,-1.8261901,0.00034660974,0.00016096387,0.0,0.0018178663,-0.013168365,-0.44796956,-0.45056933,-0.0007434996,-0.01219567,-0.016614992,0.004656008,0.05607878,0.7094544,-1.0495901,0.0036438024,229.39903,2.0381851,0.20792803,0.18611123,0.11470265,0.096605025,inf,inf,inf,inf,1,1,1,1,2,0,2,1,5,0,1,1,1,0
6979876000,6979876000,1032000,41.606704,-86.3556021,-0.6493607,-1.3623983,-2.003173,0.00034660974,0.00016096387,0.0,-0.0013015203,-0.0061968854,-0.28385362,-0.28557724,-0.0007434996,-0.01219567,-0.016614992,-0.018182833,-0.057658967,0.29059118,-1.0489857,0.0036438024,229.39903,2.215168,0.23004903,0.21419871,0.12010297,0.10179078,inf,inf,inf,inf,1,1,1,1,2,0,2,1,5,1,1,1,1,0
6980372000,6980372000,1032000,41.606704,-86.3556021,-0.6480917,-1.365648,-2.1157277,0.00034660974,0.00016096387,0.0,-0.0048013194,0.00042189873,-0.18577878,-0.18559346,-0.0007434996,-0.01219567,-0.016614992,-0.014006045,-0.0119634,0.14627811,-1.0483587,0.0036438024,229.39903,2.3277225,0.2568426,0.24494748,0.13274941,0.107494876,inf,inf,inf,inf,1,1,1,1,2,0,2,1,5,1,1,1,1,0
6980876000,6980876000,1032000,41.606704,-86.3556021,-0.65227175,-1.3655314,-2.0925827,0.00034660974,0.00016096387,0.0,-0.0062079174,0.0153367845,0.07291335,0.07873066,-0.0007434996,-0.01219567,-0.016614992,0.011283125,0.11931567,-0.2942654,-1.0484079,0.0036438024,229.39903,2.3045778,0.2817296,0.27474385,0.14325249,0.11165696,inf,inf,inf,inf,1,1,1,1,2,0,2,1,5,1,1,1,1,0
6981380000,6981380000,1032000,41.606704,-86.3556021,-0.65337837,-1.3475188,-2.1035018,0.00034660974,0.00016096387,0.0,-0.0061490973,0.141014,-0.2012978,-0.18665934,-0.0007434996,-0.01219567,-0.016614992,0.02083879,0.6389812,-0.7141549,-1.0517439,0.0036438024,229.39903,2.315497,0.3037063,0.30276805,0.15251891,0.114616364,inf,inf,inf,inf,1,1,1,1,2,0,2,1,5,1,1,1,0,0
6981876000,6981876000,1032000,41.606704,-86.3556021,-0.6519554,-1.1847836,-2.2700994,0.00034660974,0.00016096387,0.0,-0.007535132,0.6605641,-0.495256,-0.479472,-0.0007434996,-0.01219567,-0.016614992,-0.023207143,1.5869278,-0.5464992,-1.0499913,0.0036438024,229.39903,2.4820943,0.3230266,0.3260284,0.16055147,0.116153896,inf,inf,inf,inf,1,1,1,1,2,0,2,1,5,1,1,1,0,0
6982372000,6982372000,1032000,41.606704,-86.3556021,-0.6486534,-0.6970982,-2.5550857,0.00034660974,0.00016096387,0.0,-0.00375003,1.418668,-0.6484122,-0.6363912,-0.0007434996,-0.01219567,-0.016614992,0.03255286,1.5303237,-0.21960685,-1.0523607,0.0036438024,229.39903,2.7670808,0.33761337,0.34682342,0.16523714,0.116809554,inf,inf,inf,inf,1,1,1,1,2,0,2,1,5,1,1,1,0,0
6982876000,6982876000,1032000,41.606704,-86.3556021,-0.630916,0.15808903,-2.9003782,0.00034660974,0.00016096387,0.0,-0.0059233312,2.0123348,-0.70288986,-0.69631803,-0.0007434996,-0.01219567,-0.016614992,-0.110192716,0.8204907,-0.09354489,-1.0630738,0.0036438024,229.39903,3.1123734,0.33165076,0.355286,0.15512595,0.113236345,inf,inf,inf,inf,1,1,1,1,2,0,2,1,5,1,1,1,0,0
6983380000,6983380000,1032000,41.606704,-86.3556021,-0.608541,1.259336,-3.265076,0.00034660974,0.00016096387,0.0,-0.019684969,2.3312206,-0.69680023,-0.69958055,-0.0007434996,-0.01219567,-0.016614992,-0.1244247,0.40753803,0.19128707,-1.0735145,0.0036438024,229.39903,3.4770708,0.36443672,0.37759638,0.16808076,0.11697257,inf,inf,inf,inf,1,1,1,1,2,0,2,1,5,1,1,1,0,0
6983876000,6983876000,1032000,41.606704,-86.3556021,-0.594587,2.4550235,-3.6250172,0.00034660974,0.00016096387,0.0,-0.032651354,2.4583898,-0.670296,-0.6874029,-0.0007434996,-0.01219567,-0.016614992,-0.087098785,0.15454929,0.084064834,-1.0784026,0.0036438024,229.39903,3.8370123,0.34998357,0.38134232,0.15075457,0.11327966,inf,inf,inf,inf,1,1,1,1,2,0,2,1,5,1,1,1,0,0
6984372000,6984372000,1032000,41.606704,-86.3556021,-0.60230184,3.6980488,-3.980185,0.00034660974,0.00016096387,0.0,-0.047918286,2.5088992,-0.6500915,-0.6815971,-0.0007434996,-0.01219567,-0.016614992,-0.034001317,0.023387404,0.04355603,-1.0864848,0.0036438024,229.39903,4.19218,0.35735106,0.39190018,0.14888176,0.11366334,inf,inf,inf,inf,1,1,1,1,2,0,2,1,5,1,1,1,0,0
6984876000,6984876000,1032000,41.606704,-86.3556021,-0.62227356,4.9824753,-4.3316083,0.00034660974,0.00016096387,0.0,-0.043242026,2.523784,-0.6465376,-0.6852862,-0.0007434996,-0.01219567,-0.016614992,-0.017200876,-0.018122248,0.054454368,-1.0935985,0.0036438024,229.39903,4.5436034,0.36250466,0.39850453,0.1466027,0.113545865,inf,inf,inf,inf,1,1,1,1,2,0,2,1,5,1,1,1,0,0
6985372000,6985372000,1032000,41.606704,-86.3556021,-0.64255476,6.2530103,-4.6815658,0.00034660974,0.00016096387,0.0,-0.03290129,2.5203936,-0.63205576,-0.67939293,-0.0007434996,-0.01219567,-0.016614992,0.074624084,0.09780926,-0.056463353,-1.1050935,0.0036438024,229.39903,4.893561,0.36705932,0.40563062,0.14600784,0.11405255,inf,inf,inf,inf,1,1,1,1,2,0,2,1,5,1,1,1,0,0
6985876000,6985876000,1032000,41.606704,-86.3556021,-0.6645116,7.5269103,-5.035968,0.00034660974,0.00016096387,0.0,-0.017043166,2.4890194,-0.6258847,-0.67990226,-0.0007434996,-0.01219567,-0.016614992,0.17962417,-0.06908408,-0.07481693,-1.1122189,0.0036438024,229.39903,5.247963,0.3726132,0.40954825,0.14731392,0.11459683,inf,inf,inf,inf,1,1,1,1,2,0,2,1,5,1,1,1,0,0
6986380000,6986380000,1032000,41.606704,-86.3556021,-0.68108773,8.789714,-5.383693,0.00034660974,0.00016096387,0.0,-0.008618429,2.4828436,-0.6454931,-0.69892853,-0.0007434996,-0.01219567,-0.016614992,-0.09420492,0.23201683,-1.1648098,-1.1218524,0.0036438024,229.39903,5.5956883,0.37575492,0.4148327,0.14742294,0.11530467,inf,inf,inf,inf,1,1,1,1,2,0,2,1,5,1,1,1,0,0
6986876000,6986876000,1032000,41.606704,-86.3556021,-0.6906976,10.030388,-5.7370553,0.00034660974,0.00016096387,0.0,0.0073404545,2.4716666,-0.6462512,-0.70545954,-0.0007434996,-0.01219567,-0.016614992,0.06308204,-0.11108445,0.11265643,-1.1322963,0.0036438024,229.39903,5.9490504,0.35845762,0.40920696,0.13858227,0.11209091,inf,inf,inf,inf,1,1,1,1,2,0,2,1,5,1,1,1,0,0
6987372000,6987372000,1032000,41.606704,-86.3556021,-0.69325554,11.263975,-6.0951495,0.00034660974,0.00016096387,0.0,0.01372894,2.469088,-0.6416791,-0.70637244,-0.0007434996,-0.01219567,-0.016614992,0.038927242,-0.027838526,0.0071459743,-1.1408807,0.0036438024,229.39903,6.3071446,0.38130933,0.41922268,0.14905198,0.11645992,inf,inf,inf,inf,1,1,1,1,2,0,2,1,5,1,1,1,0,0
6987876000,6987876000,1032000,41.606704,-86.3556021,-0.6971828,12.528408,-6.460905,0.00034660974,0.00016096387,0.0,0.009036691,2.4712696,-0.63643396,-0.70787823,-0.0007434996,-0.01219567,-0.016614992,0.048765887,-0.028928379,0.04689389,-1.1527379,0.0036438024,229.39903,6.6729,0.36311403,0.41318253,0.14001878,0.11327766,inf,inf,inf,inf,1,1,1,1,2,0,2,1,5,1,1,1,0,0
6988380000,6988380000,1032000,41.606704,-86.3556021,-0.70163953,13.785586,-6.8174887,0.00034660974,0.00016096387,0.0,0.011053541,2.4591525,-0.6338516,-0.7042392,-0.0007434996,-0.01219567,-0.016614992,-0.049306653,0.02811904,-0.0132956235,-1.1597236,0.0036438024,229.39903,7.029484,0.36686498,0.41657034,0.14232954,0.114477135,inf,inf,inf,inf,1,1,1,1,2,0,2,1,5,1,1,1,0,0
6988876000,6988876000,1032000,41.606704,-86.3556021,-0.69875234,15.015107,-7.1645927,0.00034660974,0.00016096387,0.0,0.018373486,2.4680593,-0.64394003,-0.7090792,-0.0007434996,-0.01219567,-0.016614992,0.042120747,0.14549641,-0.17977138,-1.1709237,0.0036438024,229.39903,7.376588,0.36829355,0.41588405,0.14271468,0.114738666,inf,inf,inf,inf,1,1,1,1,2,0,2,1,5,1,1,1,0,0
6989380000,6989380000,1032000,41.606704,-86.3556021,-0.6956668,16.269243,-7.524185,0.00034660974,0.00016096387,0.0,0.014201403,2.4684122,-0.64933795,-0.71409726,-0.0007434996,-0.01219567,-0.016614992,0.12294546,-0.06370493,0.27834803,-1.1778016,0.0036438024,229.39903,7.7361803,0.37133473,0.4157786,0.14444429,0.11537402,inf,inf,inf,inf,1,1,1,1,2,0,2,1,5,1,1,1,0,0
6989876000,6989876000,1032000,41.606704,-86.3556021,-0.6925942,17.499672,-7.8749194,0.00034660974,0.00016096387,0.0,0.013925611,2.478762,-0.6471554,-0.70856,-0.0007434996,-0.01219567,-0.016614992,-0.012791546,-0.0771325,0.07535045,-1.1887598,0.0036438024,229.39903,8.086914,0.37323976,0.4179064,0.1453356,0.1160768,inf,inf,inf,inf,1,1,1,1,2,0,2,1,5,1,1,1,0,0
6990380000,6990380000,1032000,41.606704,-86.3556021,-0.6898823,18.754038,-8.229242,0.00034660974,0.00016096387,0.0,0.008300303,2.4804165,-0.6475273,-0.7042731,-0.0007434996,-0.01219567,-0.016614992,0.018883305,-0.08668015,0.041630987,-1.192369,0.0036438024,229.39903,8.441237,0.3756319,0.4204326,0.14647572,0.11683267,inf,inf,inf,inf,1,1,1,1,2,0,2,1,5,1,1,1,0,0
6990876000,6990876000,1032000,41.606704,-86.3556021,-0.6899407,19.99467,-8.576998,0.00034660974,0.00016096387,0.0,0.00978018,2.4796216,-0.6601181,-0.71261847,-0.0007434996,-0.01219567,-0.016614992,0.06024742,0.016401429,0.042338792,-1.2019798,0.0036438024,229.39903,8.788993,0.35849315,0.41359887,0.13857335,0.11346449,inf,inf,inf,inf,1,1,1,1,2,0,2,1,5,1,1,1,0,0
6991380000,6991380000,1032000,41.606704,-86.3556021,-0.6851301,21.25683,-8.93578,0.00034660974,0.00016096387,0.0,0.008099024,2.498346,-0.6744261,-0.72301733,-0.0007434996,-0.01219567,-0.016614992,0.042015437,0.12659249,-0.01280016,-1.2093904,0.0036438024,229.39903,9.147775,0.38136664,0.41895863,0.14980246,0.11763421,inf,inf,inf,inf,1,1,1,1,2,0,2,1,5,1,1,1,0,0
6991876000,6991876000,1032000,41.606704,-86.3556021,-0.68254584,22.4965,-9.299908,0.00034660974,0.00016096387,0.0,0.0036091534,2.5011594,-0.662331,-0.7161424,-0.0007434996,-0.01219567,-0.016614992,-0.06176637,-0.013394733,-0.032566547,-1.2186188,0.0036438024,229.39903,9.511903,0.36258343,0.41508856,0.14052713,0.11436082,inf,inf,inf,inf,1,1,1,1,2,0,2,1,5,1,1,1,0,0
6992372000,6992372000,1032000,41.606704,-86.3556021,-0.67995906,23.732843,-9.648933,0.00034660974,0.00016096387,0.0,0.0030194847,2.4936163,-0.6652546,-0.7137277,-0.0007434996,-0.01219567,-0.016614992,-0.072341,-0.05100927,0.22991553,-1.2227007,0.0036438024,229.39903,9.860929,0.38638663,0.42007467,0.15237343,0.11849245,inf,inf,inf,inf,1,1,1,1,2,0,2,1,5,1,1,1,0,0
6992876000,6992876000,1032000,41.606704,-86.3556021,-0.6814717,24.984234,-10.013052,0.00034660974,0.00016096387,0.0,0.0036475172,2.4958484,-0.66643494,-0.71826094,-0.0007434996,-0.01219567,-0.016614992,0.0055385972,0.12064528,-0.02283516,-1.2306862,0.0036438024,229.39903,10.225047,0.36670288,0.41652015,0.1423726,0.11509555,inf,inf,inf,inf,1,1,1,1,2,0,2,1,5,1,1,1,0,0
6993372000,6993372000,1032000,41.606704,-86.3556021,-0.6837962,26.217045,-10.370589,0.00034660974,0.00016096387,0.0,0.0012230665,2.5027347,-0.6641818,-0.7171708,-0.0007434996,-0.01219567,-0.016614992,0.012776529,0.0048375847,0.03142928,-1.2364283,0.0036438024,229.39903,10.582584,0.36923468,0.4155045,0.14385302,0.1153138,inf,inf,inf,inf,1,1,1,1,2,0,2,1,5,1,1,1,0,0
6993876000,6993876000,1032000,41.606704,-86.3556021,-0.6850551,27.475657,-10.722551,0.00034660974,0.00016096387,0.0,0.0051747337,2.5159311,-0.6706232,-0.71500486,-0.0007434996,-0.01219567,-0.016614992,-0.0364936,0.020964336,0.012185361,-1.2418294,0.0036438024,229.39903,10.934546,0.37204298,0.41797408,0.14514081,0.11593517,inf,inf,inf,inf,1,1,1,1,2,0,2,1,5,1,1,1,0,0
6994372000,6994372000,1032000,41.606704,-86.3556021,-0.6844343,28.71541,-11.072743,0.00034660974,0.00016096387,0.0,0.006328701,2.5125797,-0.67268604,-0.71401894,-0.0007434996,-0.01219567,-0.016614992,-0.009384986,0.09132685,0.044373732,-1.2502772,0.0036438024,229.39903,11.284739,0.37385413,0.41684067,0.1458361,0.11595352,inf,inf,inf,inf,1,1,1,1,2,0,2,1,5,1,1,1,0,0
6994876000,6994876000,1032000,41.606704,-86.3556021,-0.6858935,29.965633,-11.4395075,0.00034660974,0.00016096387,0.0,0.005742046,2.4994159,-0.65860915,-0.7056335,-0.0007434996,-0.01219567,-0.016614992,-0.013415363,-0.18526013,0.03479601,-1.2578809,0.0036438024,229.39903,11.651503,0.37738952,0.41943246,0.1476828,0.11668786,inf,inf,inf,inf,1,1,1,1,2,0,2,1,5,1,1,1,0,0
6995372000,6995372000,1032000,41.606704,-86.3556021,-0.68745875,31.16811,-11.780299,0.00034660974,0.00016096387,0.0,0.009704056,2.340678,-0.6379286,-0.6796257,-0.0007434996,-0.01219567,-0.016614992,0.3195963,-0.74256575,0.37487683,-1.2654701,0.0036438024,229.39903,11.992294,0.3785322,0.41822013,0.14761952,0.116570994,inf,inf,inf,inf,1,1,1,1,2,0,2,1,5,1,1,1,0,0
6995876000,6995876000,1032000,41.606704,-86.3556021,-0.6877021,32.212574,-12.091255,0.00034660974,0.00016096387,0.0,0.00795819,1.7598448,-0.4892966,-0.5279582,-0.0007434996,-0.01219567,-0.016614992,-0.044798236,-1.5446886,0.5570044,-1.2711787,0.0036438024,229.39903,12.30325,0.36111706,0.41219705,0.13917373,0.113194,inf,inf,inf,inf,1,1,1,1,2,0,2,1,5,1,1,1,0,0
6996372000,6996372000,1032000,41.606704,-86.3556021,-0.69556767,32.893723,-12.290612,0.00034660974,0.00016096387,0.0,0.0042922255,0.9994085,-0.27628812,-0.31027108,-0.0007434996,-0.01219567,-0.016614992,0.013513223,-1.3859389,0.28496042,-1.2712363,0.0036438024,229.39903,12.502607,0.38481346,0.42006984,0.15144044,0.11761399,inf,inf,inf,inf,1,1,1,1,2,0,2,1,5,1,1,1,0,0
6996876000,6996876000,1032000,41.606704,-86.3556021,-0.7177178,33.239155,-12.41691,0.00034660974,0.00016096387,0.0,0.0054157046,0.43205154,-0.14820684,-0.18538137,-0.0007434996,-0.01219567,-0.016614992,0.021997334,-0.8398857,0.06485258,-1.2772061,0.0036438024,229.39903,12.628905,0.36546364,0.4137608,0.14199154,0.11409077,inf,inf,inf,inf,1,1,1,1,2,0,2,1,5,1,1,1,0,0
6997372000,6997372000,1032000,41.606704,-86.3556021,-0.7520659,33.351643,-12.47845,0.00034660974,0.00016096387,0.0,0.023701034,0.12273826,-0.088465445,-0.114561245,-0.0007434996,-0.01219567,-0.016614992,-0.13373671,-0.4578985,-0.9894362,-1.2789385,0.0036438024,229.39903,12.690445,0.36813492,0.41571105,0.14333847,0.1149413,inf,inf,inf,inf,1,1,1,1,2,0,2,1,5,1,1,1,0,0
6997876000,6997876000,1032000,41.606704,-86.3556021,-0.76209444,33.357,-12.514142,0.00034660974,0.00016096387,0.0,0.051420964,0.009181961,-0.051585924,-0.06953458,-0.0007434996,-0.01219567,-0.016614992,0.12949385,-0.09228178,0.15978135,-1.2828661,0.0036438024,229.39903,12.726137,0.36993963,0.4151088,0.14306831,0.11539542,inf,inf,inf,inf,1,1,1,1,2,0,2,1,5,1,1,1,0,0
6998372000,6998372000,1032000,41.606704,-86.3556021,-0.76752734,33.327995,-12.520357,0.00034660974,0.00016096387,0.0,0.024482625,-0.029712168,0.038370404,0.027883302,-0.0007434996,-0.01219567,-0.016614992,-0.04170229,-0.098212816,0.10550108,-1.2837667,0.0036438024,229.39903,12.732352,0.37205467,0.41706303,0.1434345,0.11629488,inf,inf,inf,inf,1,1,1,1,2,0,2,1,5,1,1,1,0,0
6998876000,6998876000,1032000,41.606704,-86.3556021,-0.7826404,33.28859,-12.501329,0.00034660974,0.00016096387,0.0,-0.0031347475,-0.027054941,0.021634571,0.015656639,-0.0007434996,-0.01219567,-0.016614992,0.0957798,0.11931583,-0.07763045,-1.2838789,0.0036438024,229.39903,12.713325,0.37580597,0.41678658,0.14553082,0.11722946,inf,inf,inf,inf,1,1,1,1,2,0,2,1,5,1,1,1,0,0
6999372000,6999372000,1032000,41.606704,-86.3556021,-0.7897612,33.26015,-12.4956875,0.00034660974,0.00016096387,0.0,0.0054919347,0.0038911698,0.0017385484,-0.0036858246,-0.0007434996,-0.01219567,-0.016614992,0.051904704,0.11495092,0.007407676,-1.2832825,0.0036438024,229.39903,12.707683,0.37712777,0.41862494,0.1459929,0.11792087,inf,inf,inf,inf,1,1,1,1,2,0,2,1,5,1,1,1,0,0
6999876000,6999876000,1032000,41.606704,-86.3556021,-0.79212964,33.252174,-12.48543,0.00034660974,0.00016096387,0.0,0.017213335,0.040066272,-0.011587134,-0.0070419135,-0.0007434996,-0.01219567,-0.016614992,0.092625685,0.10404331,-0.10484649,-1.283423,0.0036438024,229.39903,12.697425,0.3601171,0.41534618,0.13829598,0.11506259,inf,inf,inf,inf,1,1,1,1,2,0,2,1,5,1,1,1,0,0
7000372000,7000372000,1032000,41.606704,-86.3556021,-0.78696096,33.263744,-12.4851465,0.00034660974,0.00016096387,0.0,0.022831686,0.058482725,-0.01892399,-0.011114855,-0.0007434996,-0.01219567,-0.016614992,0.07925258,0.035153914,-0.0998574,-1.2833438,0.0036438024,229.39903,12.697142,0.38226956,0.4199407,0.14900908,0.119280525,inf,inf,inf,inf,1,1,1,1,2,0,2,1,5,1,1,1,0,0
7000876000,7000876000,1032000,41.606704,-86.3556021,-0.77150047,33.279053,-12.481126,0.00034660974,0.00016096387,0.0,0.018390702,0.060008142,-0.023948902,-0.009206113,-0.0007434996,-0.01219567,-0.016614992,-0.091790505,-0.043043807,-0.08405937,-1.2838569,0.0036438024,229.39903,12.693121,0.36375552,0.413544,0.14014195,0.115750596,inf,inf,inf,inf,1,1,1,1,2,0,2,1,5,1,1,1,0,0
7001380000,7001380000,1032000,41.606704,-86.3556021,-0.7531323,33.29282,-12.477887,0.00034660974,0.00016096387,0.0,0.00765038,0.054871295,-0.0316583,-0.010166714,-0.0007434996,-0.01219567,-0.016614992,0.09685736,0.04930565,-0.110255614,-1.2840548,0.0036438024,229.39903,12.689882,0.36730152,0.41618678,0.14240997,0.11681502,inf,inf,inf,inf,1,1,1,1,2,0,2,1,5,1,1,1,0,0
7001876000,7001876000,1032000,41.606704,-86.3556021,-0.73517936,33.314983,-12.482241,0.00034660974,0.00016096387,0.0,-0.003240768,0.052987263,-0.031931598,-0.010614941,-0.0007434996,-0.01219567,-0.016614992,-0.08341074,0.050534867,0.15741114,-1.2850001,0.0036438024,229.39903,12.694236,0.368614,0.41515565,0.14265525,0.11697668,inf,inf,inf,inf,1,1,1,1,2,0,2,1,5,1,1,1,0,0
7002380000,7002380000,1032000,41.606704,-86.3556021,-0.7185633,33.342995,-12.47855,0.00034660974,0.00016096387,0.0,-0.021702042,0.03516106,-0.037110627,-0.009591469,-0.0007434996,-0.01219567,-0.016614992,-0.045725793,-0.09573377,0.029161507,-1.2852231,0.0036438024,229.39903,12.690545,0.37154785,0.41781974,0.14411105,0.11784373,inf,inf,inf,inf,1,1,1,1,2,0,2,1,5,1,1,1,0,0
7002876000,7002876000,1032000,41.606704,-86.3556021,-0.7153309,33.36253,-12.478496,0.00034660974,0.00016096387,0.0,-0.036805347,0.015830968,-0.035008226,-0.005081188,-0.0007434996,-0.01219567,-0.016614992,-0.0034264752,-0.11501664,-0.056814462,-1.2846963,0.0036438024,229.39903,12.690491,0.3734971,0.41687277,0.14479549,0.118089,inf,inf,inf,inf,1,1,1,1,2,0,2,1,5,1,1,1,0,0
7003372000,7003372000,1032000,41.606704,-86.3556021,-0.71127397,33.369877,-12.470474,0.00034660974,0.00016096387,0.0,-0.036346357,-0.0027757643,-0.0412428,-0.0031268722,-0.0007434996,-0.01219567,-0.016614992,0.09054663,-0.06689243,-0.01053984,-1.2850157,0.0036438024,229.39903,12.682469,0.37515688,0.41879776,0.14529409,0.118580736,inf,inf,inf,inf,1,1,1,1,2,0,2,1,5,1,1,1,0,0
7003876000,7003876000,1032000,41.606704,-86.3556021,-0.7076633,33.372917,-12.474983,0.00034660974,0.00016096387,0.0,-0.040817574,-0.008822305,-0.044919346,-0.009038286,-0.0007434996,-0.01219567,-0.016614992,-0.027839769,0.0014790221,0.025033886,-1.2850822,0.0036438024,229.39903,12.686978,0.35865635,0.4155347,0.13755555,0.115502656,inf,inf,inf,inf,1,1,1,1,2,0,2,1,5,1,1,1,0,0
7004380000,7004380000,1032000,41.606704,-86.3556021,-0.7103847,33.378654,-12.479611,0.00034660974,0.00016096387,0.0,-0.044885043,-0.008435722,-0.044295274,-0.010037359,-0.0007434996,-0.01219567,-0.016614992,0.05036336,0.046775434,-0.004949111,-1.2850404,0.0036438024,229.39903,12.6916065,0.3815041,0.42091075,0.14823256,0.11982948,inf,inf,inf,inf,1,1,1,1,2,0,2,1,5,1,1,1,0,0
7004876000,7004876000,1032000,41.606704,-86.3556021,-0.70769376,33.384705,-12.482721,0.00034660974,0.00016096387,0.0,-0.03667486,-0.012417174,-0.039013878,-0.0059788814,-0.0007434996,-0.01219567,-0.016614992,-0.07782305,-0.022437977,-0.04121667,-1.2847215,0.0036438024,229.39903,12.694716,0.36267436,0.41682833,0.13903497,0.11632952,inf,inf,inf,inf,1,1,1,1,2,0,2,1,5,1,1,1,0,0
7005380000,7005380000,1032000,41.606704,-86.3556021,-0.7074003,33.384083,-12.485325,0.00034660974,0.00016096387,0.0,-0.04168387,-0.01506776,-0.035278533,-0.0036018186,-0.0007434996,-0.01219567,-0.016614992,-0.14947516,-0.046671256,-0.17143884,-1.2841063,0.0036438024,229.39903,12.69732,0.387136,0.42254803,0.15068176,0.12087921,inf,inf,inf,inf,1,1,1,1,2,0,2,1,5,1,1,1,0,0
7005876000,7005876000,1032000,41.606704,-86.3556021,-0.71238995,33.382732,-12.484655,0.00034660974,0.00016096387,0.0,-0.03583358,-0.016405033,-0.02862272,0.0049251835,-0.0007434996,-0.01219567,-0.016614992,0.004003103,-0.08664118,-0.071244374,-1.2840184,0.0036438024,229.39903,12.6966505,0.36670443,0.41545555,0.14055099,0.116854645,inf,inf,inf,inf,1,1,1,1,2,0,2,1,5,1,1,1,0,0
7006372000,7006372000,1032000,41.606704,-86.3556021,-0.72014713,33.376083,-12.47702,0.00034660974,0.00016096387,0.0,-0.03529497,-0.019641202,-0.043894902,-0.0033122061,-0.0007434996,-0.01219567,-0.016614992,-0.054189704,-0.05974508,-1.2084944,-1.2839981,0.0036438024,229.39903,12.689015,0.36920524,0.4175283,0.14198208,0.11753709,inf,inf,inf,inf,1,1,1,1,2,0,2,1,5,1,1,1,0,0
7006876000,7006876000,1032000,41.606704,-86.3556021,-0.7340742,33.37444,-12.479918,0.00034660974,0.00016096387,0.0,-0.028032085,-0.0130177345,-0.04336455,-0.0049059265,-0.0007434996,-0.01219567,-0.016614992,0.004386849,-0.042932097,0.019446881,-1.2838736,0.0036438024,229.39903,12.691913,0.37197712,0.41723692,0.14322564,0.11796008,inf,inf,inf,inf,1,1,1,1,2,0,2,1,5,1,1,1,0,0
7007380000,7007380000,1032000,41.606704,-86.3556021,-0.738816,33.374054,-12.476025,0.00034660974,0.00016096387,0.0,-0.013118187,-0.01577948,-0.043038655,-0.0006053592,-0.0007434996,-0.01219567,-0.016614992,0.07585107,0.1218881,0.06800045,-1.2836025,0.0036438024,229.39903,12.68802,0.37446195,0.41982895,0.14421228,0.118637204,inf,inf,inf,inf,1,1,1,1,2,0,2,1,5,1,1,1,0,0
7007876000,7007876000,1032000,41.606704,-86.3556021,-0.73905075,33.37151,-12.464423,0.00034660974,0.00016096387,0.0,-0.006979394,-0.015520572,-0.057696596,-0.0047722515,-0.0007434996,-0.01219567,-0.016614992,-0.022327628,-0.0028943645,0.0007487201,-1.284153,0.0036438024,229.39903,12.676418,0.37722847,0.4188448,0.1457799,0.11895528,inf,inf,inf,inf,1,1,1,1,2,0,2,1,5,1,1,1,0,0
7008380000,7008380000,1032000,41.606704,-86.3556021,-0.75051624,33.365944,-12.460312,0.00034660974,0.00016096387,0.0,-0.005332446,-0.009932696,-0.060169924,-0.002770484,-0.0007434996,-0.01219567,-0.016614992,0.09531878,0.055767436,0.0072586644,-1.2837329,0.0036438024,229.39903,12.672307,0.37907425,0.42131105,0.14616631,0.119475536,inf,inf,inf,inf,1,1,1,1,2,0,2,1,5,1,1,1,0,0
7008876000,7008876000,1032000,41.606704,-86.3556021,-0.7606823,33.369465,-12.447457,0.00034660974,0.00016096387,0.0,0.0022433724,-0.00495723,-0.072594434,-0.0036488227,-0.0007434996,-0.01219567,-0.016614992,0.075875215,-0.031152723,-0.067816176,-1.2834258,0.0036438024,229.39903,12.659452,0.361,0.41434816,0.1377196,0.11571891,inf,inf,inf,inf,1,1,1,1,2,0,2,1,5,1,1,1,0,0
7009372000,7009372000,1032000,41.606704,-86.3556021,-0.766055,33.373695,-12.452549,0.00034660974,0.00016096387,0.0,0.0119017,-0.009419928,-0.075884126,-0.011569833,-0.0007434996,-0.01219567,-0.016614992,0.019867724,0.05915527,0.031984348,-1.2835277,0.0036438024,229.39903,12.664544,0.3845605,0.42226383,0.14913054,0.120413505,inf,inf,inf,inf,1,1,1,1,2,0,2,1,5,1,1,1,0,0
7009876000,7009876000,1032000,41.606704,-86.3556021,-0.76957923,33.3846,-12.460826,0.00034660974,0.00016096387,0.0,0.018998971,-0.010431153,-0.06306737,-0.004372287,-0.0007434996,-0.01219567,-0.016614992,-0.06520225,0.00776961,0.0061699483,-1.2834948,0.0036438024,229.39903,12.672821,0.365449,0.41555983,0.13969176,0.11657706,inf,inf,inf,inf,1,1,1,1,2,0,2,1,5,1,1,1,0,0
7010372000,7010372000,1032000,41.606704,-86.3556021,-0.77090454,33.392467,-12.462644,0.00034660974,0.00016096387,0.0,0.023959318,-0.019941362,-0.0602375,-0.003373993,-0.0007434996,-0.01219567,-0.016614992,0.027875772,-0.04130157,-0.12581614,-1.2834576,0.0036438024,229.39903,12.674639,0.3680275,0.4174946,0.141156,0.11725943,inf,inf,inf,inf,1,1,1,1,2,0,2,1,5,1,1,1,0,0
7010876000,7010876000,1032000,41.606704,-86.3556021,-0.7726592,33.390465,-12.476041,0.00034660974,0.00016096387,0.0,0.018613178,-0.026352976,-0.04600026,-0.00035797563,-0.0007434996,-0.01219567,-0.016614992,-0.17077814,-0.15873156,1.3790613,-1.2832038,0.0036438024,229.39903,12.688036,0.36980462,0.41696718,0.14149772,0.117457576,inf,inf,inf,inf,1,1,1,1,2,0,2,1,5,1,1,1,0,0
7011380000,7011380000,1032000,41.606704,-86.3556021,-0.7831691,33.386845,-12.47369,0.00034660974,0.00016096387,0.0,0.021742979,-0.025065267,-0.046921425,0.0015300371,-0.0007434996,-0.01219567,-0.016614992,0.0027669251,0.034785874,0.25766987,-1.2834246,0.0036438024,229.39903,12.685685,0.3726008,0.41658437,0.14287467,0.11787831,inf,inf,inf,inf,1,1,1,1,2,0,2,1,5,1,1,1,0,0
7011876000,7011876000,1032000,41.606704,-86.3556021,-0.7944928,33.382336,-12.467214,0.00034660974,0.00016096387,0.0,0.031129897,-0.024293324,-0.053393584,-0.00029087797,-0.0007434996,-0.01219567,-0.016614992,-0.017468384,-0.015514289,-0.017506134,-1.2835383,0.0036438024,229.39903,12.679209,0.37564015,0.41876993,0.14473203,0.11867987,inf,inf,inf,inf,1,1,1,1,2,0,2,1,5,1,1,1,0,0
7012372000,7012372000,1032000,41.606704,-86.3556021,-0.7971475,33.376358,-12.475787,0.00034660974,0.00016096387,0.0,0.03778044,-0.023302868,-0.05085093,-0.004778488,-0.0007434996,-0.01219567,-0.016614992,-0.050525762,0.054973617,0.04095671,-1.2835927,0.0036438024,229.39903,12.687782,0.37689933,0.42066452,0.14491482,0.1190676,inf,inf,inf,inf,1,1,1,1,2,0,2,1,5,1,1,1,0,0
7012876000,7012876000,1032000,41.606704,-86.3556021,-0.8060878,33.374767,-12.477837,0.00034660974,0.00016096387,0.0,0.042373363,-0.015453164,-0.047689725,-0.0031531255,-0.0007434996,-0.01219567,-0.016614992,0.045792386,-0.013436101,-0.034852013,-1.2839581,0.0036438024,229.39903,12.689832,0.359858,0.4143361,0.1369431,0.11553115,inf,inf,inf,inf,1,1,1,1,2,0,2,1,5,1,1,1,0,0
7013372000,7013372000,1032000,41.606704,-86.3556021,-0.79901105,33.375156,-12.479358,0.00034660974,0.00016096387,0.0,0.032103572,-0.007150187,0.00016768364,0.037901156,-0.0007434996,-0.01219567,-0.016614992,-0.041697912,0.023436578,0.08940596,-1.2837111,0.0036438024,229.39903,12.691353,0.3819095,0.4220375,0.14699222,0.11996423,inf,inf,inf,inf,1,1,1,1,2,0,2,1,5,1,1,1,0,0
7013876000,7013876000,1032000,41.606704,-86.3556021,-0.8092674,33.38371,-12.455888,0.00034660974,0.00016096387,0.0,0.020961247,0.0071987817,-0.019547112,0.023819614,-0.0007434996,-0.01219567,-0.016614992,0.110400885,-0.07701833,-0.16724044,-1.2842549,0.0036438024,229.39903,12.667883,0.3635822,0.41547275,0.13839474,0.11624181,inf,inf,inf,inf,1,1,1,1,2,0,2,1,5,1,1,1,0,0
7014380000,7014380000,1032000,41.606704,-86.3556021,-0.7840181,33.38654,-12.44702,0.00034660974,0.00016096387,0.0,0.23260547,0.004263206,-0.05923268,-0.011526372,-0.0007434996,-0.01219567,-0.016614992,0.89113206,0.023327941,-0.106928,-1.2853968,0.0036438024,229.39903,12.659015,0.36710936,0.41510668,0.14068705,0.11683568,inf,inf,inf,inf,1,1,1,1,2,0,2,1,5,1,1,1,0,0
7014876000,7014876000,1032000,41.606704,-86.3556021,-0.5643698,33.383347,-12.4626875,0.00034660974,0.00016096387,0.0,0.8441453,6.741368e-05,-0.1166513,-0.06618757,-0.0007434996,-0.01219567,-0.016614992,1.5792094,0.010718102,-0.20478112,-1.2887225,0.0036438024,229.39903,12.674683,0.36835292,0.41697437,0.14145699,0.117140606,inf,inf,inf,inf,1,1,1,1,2,0,2,1,5,1,1,1,0,0
7015380000,7015380000,1032000,41.606704,-86.3556021,0.006047724,33.369465,-12.497804,0.00034660974,0.00016096387,0.0,1.6092224,-0.0005374839,-0.1555039,-0.097265184,-0.0007434996,-0.01219567,-0.016614992,1.4693485,0.06313937,-0.034703,-1.2908287,0.0036438024,229.39903,12.709799,0.371289,0.41654423,0.14418656,0.11731208,inf,inf,inf,inf,1,1,1,1,2,0,2,1,5,1,1,1,0,0
7015876000,7015876000,1032000,41.606704,-86.3556021,0.9075855,33.35231,-12.541871,0.00034660974,0.00016096387,0.0,2.136095,0.0163629,-0.1285938,-0.072687194,-0.0007434996,-0.01219567,-0.016614992,0.7695296,-0.023790102,0.004562486,-1.2888889,0.0036438024,229.39903,12.753866,0.3732257,0.41845855,0.14551502,0.11757819,inf,inf,inf,inf,1,1,1,1,2,0,2,1,5,1,1,1,0,0
7016372000,7016372000,1032000,41.606704,-86.3556021,2.020947,33.333828,-12.569032,0.00034660974,0.00016096387,0.0,2.4119394,0.02878177,-0.07620556,-0.024221422,-0.0007434996,-0.01219567,-0.016614992,0.36729813,0.05938195,0.043896895,-1.292389,0.0036438024,229.39903,12.781027,0.37490416,0.41738713,0.14568219,0.1175175,inf,inf,inf,inf,1,1,1,1,2,0,2,1,5,1,1,1,0,0
7016876000,7016876000,1032000,41.606704,-86.3556021,3.2483835,33.313793,-12.577173,0.00034660974,0.00016096387,0.0,2.516721,0.044776544,-0.041639276,0.0048817336,-0.0007434996,-0.01219567,-0.016614992,0.110250406,0.08636788,0.10893207,-1.2967656,0.0036438024,229.39903,12.789168,0.35848215,0.41418585,0.13723916,0.11443532,inf,inf,inf,inf,1,1,1,1,2,0,2,1,5,1,1,1,0,0
7017380000,7017380000,1032000,41.606704,-86.3556021,4.520492,33.31036,-12.581108,0.00034660974,0.00016096387,0.0,2.55279,0.06895908,-0.012105458,0.022640755,-0.0007434996,-0.01219567,-0.016614992,-0.07829766,0.0077045094,-0.07647468,-1.3069216,0.0036438024,229.39903,12.793103,0.3812346,0.42236498,0.14738396,0.1189869,inf,inf,inf,inf,1,1,1,1,2,0,2,1,5,1,1,1,0,0
7017876000,7017876000,1032000,41.606704,-86.3556021,5.7777176,33.317333,-12.578665,0.00034660974,0.00016096387,0.0,2.570544,0.07012417,-0.0015837371,0.02391704,-0.0007434996,-0.01219567,-0.016614992,0.031539034,0.022500746,-0.02364541,-1.3202815,0.0036438024,229.39903,12.79066,0.36250934,0.415228,0.13818926,0.1152144,inf,inf,inf,inf,1,1,1,1,2,0,2,1,5,1,1,1,0,0
7018380000,7018380000,1032000,41.606704,-86.3556021,7.068711,33.333965,-12.577218,0.00034660974,0.00016096387,0.0,2.5712552,0.0748175,0.0058956784,0.021454424,-0.0007434996,-0.01219567,-0.016614992,-0.02282208,0.038372032,-0.010852764,-1.3271182,0.0036438024,229.39903,12.789213,0.38686225,0.42068517,0.14978684,0.11971112,inf,inf,inf,inf,1,1,1,1,2,0,2,1,5,1,1,1,0,0
7018876000,7018876000,1032000,41.606704,-86.3556021,8.321455,33.35197,-12.576404,0.00034660974,0.00016096387,0.0,2.5529277,0.06337874,0.014085637,0.020489754,-0.0007434996,-0.01219567,-0.016614992,0.015976109,-0.0018235866,-0.07127604,-1.3471378,0.0036438024,229.39903,12.788399,0.36654615,0.41657722,0.13997681,0.11613167,inf,inf,inf,inf,1,1,1,1,2,0,2,1,5,1,1,1,0,0
7019380000,7019380000,1032000,41.606704,-86.3556021,9.582453,33.369144,-12.571908,0.00034660974,0.00016096387,0.0,2.5531282,0.04746686,0.005224214,0.010467588,-0.0007434996,-0.01219567,-0.016614992,0.025918838,-0.05168757,-0.021008836,-1.3593427,0.0036438024,229.39903,12.783903,0.3696948,0.41620046,0.14202085,0.11666104,inf,inf,inf,inf,1,1,1,1,2,0,2,1,5,1,1,1,0,0
7019876000,7019876000,1032000,41.606704,-86.3556021,10.827844,33.382847,-12.578191,0.00034660974,0.00016096387,0.0,2.553042,0.041315254,-0.0003094482,-0.0024949035,-0.0007434996,-0.01219567,-0.016614992,-0.067638144,0.034050405,0.2244617,-1.3675845,0.0036438024,229.39903,12.790186,0.3717488,0.41808596,0.14320438,0.11721138,inf,inf,inf,inf,1,1,1,1,2,0,2,1,5,1,1,1,0,0
7020380000,7020380000,1032000,41.606704,-86.3556021,12.053859,33.40859,-12.577863,0.00034660974,0.00016096387,0.0,2.3771667,0.037666164,0.049426135,0.039809223,-0.0007434996,-0.01219567,-0.016614992,-0.59851336,-0.049034506,0.14906463,-1.3911085,0.0036438024,229.39903,12.789858,0.37422168,0.4175393,0.14454038,0.11751207,inf,inf,inf,inf,1,1,1,1,2,0,2,1,5,1,1,1,0,0
7020876000,7020876000,1032000,41.606704,-86.3556021,13.084204,33.433918,-12.559865,0.00034660974,0.00016096387,0.0,1.8114326,0.022999847,0.08307074,0.06428788,-0.0007434996,-0.01219567,-0.016614992,-1.4479622,0.0438695,0.07113901,-1.4018021,0.0036438024,229.39903,12.77186,0.37704667,0.41944948,0.14736491,0.11817222,inf,inf,inf,inf,1,1,1,1,2,0,2,1,5,1,1,1,0,0
7021380000,7021380000,1032000,41.606704,-86.3556021,13.791937,33.45667,-12.54266,0.00034660974,0.00016096387,0.0,1.0425575,0.017619666,0.060059913,0.033624865,-0.0007434996,-0.01219567,-0.016614992,-1.4460086,-0.00019131973,-0.06422593,-1.4068874,0.0036438024,229.39903,12.754655,0.3789225,0.42169377,0.14998628,0.11853079,inf,inf,inf,inf,1,1,1,1,2,0,2,1,5,1,1,1,0,0
7021876000,7021876000,1032000,41.606704,-86.3556021,14.137117,33.49224,-12.544861,0.00034660974,0.00016096387,0.0,0.46781293,0.0043626674,0.021988003,-0.010354023,-0.0007434996,-0.01219567,-0.016614992,-0.87257075,-0.0007963529,0.005376462,-1.4293816,0.0036438024,229.39903,12.756856,0.36088514,0.41456282,0.1421252,0.11466713,inf,inf,inf,inf,1,1,1,1,2,0,2,1,5,1,1,1,0,0
7022372000,7022372000,1032000,41.606704,-86.3556021,14.259507,33.513145,-12.551637,0.00034660974,0.00016096387,0.0,0.14702326,-0.028683495,0.01527045,-0.01505505,-0.0007434996,-0.01219567,-0.016614992,-0.37356195,-0.056667086,0.037799526,-1.444371,0.0036438024,229.39903,12.763632,0.38314572,0.42196614,0.15267013,0.11884797,inf,inf,inf,inf,1,1,1,1,2,0,2,1,5,1,1,1,0,0
7022876000,7022876000,1032000,41.606704,-86.3556021,14.249709,33.527122,-12.550184,0.00034660974,0.00016096387,0.0,0.020707723,-0.05117889,0.0069146096,-0.013110762,-0.0007434996,-0.01219567,-0.016614992,-0.050953444,-0.027906701,-0.007843661,-1.4565337,0.0036438024,229.39903,12.762179,0.36437237,0.41528976,0.14181727,0.11519092,inf,inf,inf,inf,1,1,1,1,2,0,2,1,5,1,1,1,0,0
7023380000,7023380000,1032000,41.606704,-86.3556021,14.203649,33.534306,-12.531472,0.00034660974,0.00016096387,0.0,-0.03958235,-0.023601899,0.046432763,0.04187928,-0.0007434996,-0.01219567,-0.016614992,-0.2072461,0.19538398,-0.15591276,-1.4623556,0.0036438024,229.39903,12.743467,0.36783192,0.4176315,0.14266127,0.116160385,inf,inf,inf,inf,1,1,1,1,2,0,2,1,5,1,1,1,0,0
7023876000,7023876000,1032000,41.606704,-86.3556021,14.143625,33.551655,-12.506818,0.00034660974,0.00016096387,0.0,-0.06763741,-0.008693649,0.056726206,0.056962993,-0.0007434996,-0.01219567,-0.016614992,0.112995334,-0.13332082,0.108589344,-1.4609004,0.0036438024,229.39903,12.718813,0.36897755,0.41622403,0.1420532,0.1162841,inf,inf,inf,inf,1,1,1,1,2,0,2,1,5,1,1,1,0,0
7024380000,7024380000,1032000,41.606704,-86.3556021,14.055399,33.537533,-12.425924,0.00034660974,0.00016096387,0.0,-0.18476231,-0.20527795,0.27737343,0.2778562,-0.0007434996,-0.01219567,-0.016614992,-0.28901166,-0.7410711,0.6164982,-1.465809,0.0036438024,229.39903,12.637919,0.3718487,0.41859338,0.14255854,0.11717663,inf,inf,inf,inf,1,1,1,1,2,0,2,1,5,1,1,1,0,0
7024876000,7024876000,1032000,41.606704,-86.3556021,13.875935,33.32583,-12.24576,0.00034660974,0.00016096387,0.0,-0.45738056,-0.79480124,0.39390782,0.39905173,-0.0007434996,-0.01219567,-0.016614992,-0.5566978,-1.4903716,0.20512559,-1.4650438,0.0036438024,229.39903,12.457755,0.37359175,0.4173766,0.14336394,0.117287405,inf,inf,inf,inf,1,1,1,1,2,0,2,1,5,1,1,1,0,0
7025380000,7025380000,1032000,41.606704,-86.3556021,13.547698,32.766815,-12.011748,0.00034660974,0.00016096387,0.0,-0.697577,-1.5122235,0.4581496,0.47926983,-0.0007434996,-0.01219567,-0.016614992,-0.41997954,-1.2428764,0.19785103,-1.4723556,0.0036438024,229.39903,12.223743,0.37586156,0.4197952,0.14529426,0.11771671,inf,inf,inf,inf,1,1,1,1,2,0,2,1,5,1,1,1,0,0
7025876000,7025876000,1032000,41.606704,-86.3556021,13.130807,31.902775,-11.718303,0.00034660974,0.00016096387,0.0,-0.82775897,-2.0230982,0.5449184,0.59116834,-0.0007434996,-0.01219567,-0.016614992,-0.20296116,-0.77675873,0.14455983,-1.4813899,0.0036438024,229.39903,11.930298,0.35859424,0.41299763,0.1375918,0.113999106,inf,inf,inf,inf,1,1,1,1,2,0,2,1,5,1,1,1,0,0
7026380000,7026380000,1032000,41.606704,-86.3556021,12.670154,30.813353,-11.386356,0.00034660974,0.00016096387,0.0,-0.8912989,-2.324747,0.62171227,0.67570716,-0.0007434996,-0.01219567,-0.016614992,-0.007451613,-0.40583122,0.12174148,-1.4834905,0.0036438024,229.39903,11.5983515,0.38119167,0.42096835,0.14820468,0.118382946,inf,inf,inf,inf,1,1,1,1,2,0,2,1,5,1,1,1,0,0
7026876000,7026876000,1032000,41.606704,-86.3556021,12.181103,29.626526,-11.020253,0.00034660974,0.00016096387,0.0,-0.9302887,-2.4701161,0.6764393,0.74022096,-0.0007434996,-0.01219567,-0.016614992,-0.0063634296,-0.1596363,0.059730306,-1.4891244,0.0036438024,229.39903,11.232248,0.36246645,0.41671667,0.13886924,0.11492446,inf,inf,inf,inf,1,1,1,1,2,0,2,1,5,1,1,1,0,0
7027380000,7027380000,1032000,41.606704,-86.3556021,11.6768,28.364157,-10.622744,0.00034660974,0.00016096387,0.0,-0.94020665,-2.5166788,0.6894044,0.7645212,-0.0007434996,-0.01219567,-0.016614992,0.04731469,-0.10956798,0.02803647,-1.477025,0.0036438024,229.39903,10.834739,0.38669673,0.4219571,0.15053377,0.11938011,inf,inf,inf,inf,1,1,1,1,2,0,2,1,5,1,1,1,0,0
7027876000,7027876000,1032000,41.606704,-86.3556021,11.18293,27.093328,-10.229072,0.00034660974,0.00016096387,0.0,-0.9536547,-2.5422804,0.7026278,0.78390944,-0.0007434996,-0.01219567,-0.016614992,0.013936331,-0.002412581,-0.08463586,-1.477794,0.0036438024,229.39903,10.441067,0.3664243,0.4147215,0.1406497,0.11550583,inf,inf,inf,inf,1,1,1,1,2,0,2,1,5,1,1,1,0,0
7028380000,7028380000,1032000,41.606704,-86.3556021,10.680001,25.803421,-9.823809,0.00034660974,0.00016096387,0.0,-0.97520304,-2.5444772,0.6927832,0.78116935,-0.0007434996,-0.01219567,-0.016614992,-0.07251075,-0.023732934,-0.13786186,-1.4684219,0.0036438024,229.39903,10.035804,0.3695903,0.4170814,0.14284433,0.11641543,inf,inf,inf,inf,1,1,1,1,2,0,2,1,5,1,1,1,0,0
7028876000,7028876000,1032000,41.606704,-86.3556021,10.182544,24.53256,-9.430613,0.00034660974,0.00016096387,0.0,-0.9879835,-2.5350406,0.6828657,0.77448404,-0.0007434996,-0.01219567,-0.016614992,-0.026203593,-0.008846146,-0.07400202,-1.4488063,0.0036438024,229.39903,9.642608,0.3716658,0.41881815,0.14422077,0.117030345,inf,inf,inf,inf,1,1,1,1,2,0,2,1,5,1,1,1,0,0
7029380000,7029380000,1032000,41.606704,-86.3556021,9.678632,23.249514,-9.02429,0.00034660974,0.00016096387,0.0,-1.0035477,-2.5275874,0.6724339,0.7762067,-0.0007434996,-0.01219567,-0.016614992,-0.13600251,0.0023635952,-0.16891775,-1.4475815,0.0036438024,229.39903,9.236285,0.3741717,0.4182275,0.14570719,0.11740283,inf,inf,inf,inf,1,1,1,1,2,0,2,1,5,1,1,1,0,0
7029876000,7029876000,1032000,41.606704,-86.3556021,9.183491,21.992153,-8.634956,0.00034660974,0.00016096387,0.0,-1.0195036,-2.5172682,0.6474929,0.7563353,-0.0007434996,-0.01219567,-0.016614992,-0.03964816,0.1047595,-0.11570758,-1.4332298,0.0036438024,229.39903,8.8469515,0.37698773,0.41721776,0.14769384,0.11776218,inf,inf,inf,inf,1,1,1,1,2,0,2,1,5,1,1,1,0,0
7030380000,7030380000,1032000,41.606704,-86.3556021,8.678172,20.717384,-8.248659,0.00034660974,0.00016096387,0.0,-1.0221474,-2.501398,0.64203346,0.7536892,-0.0007434996,-0.01219567,-0.016614992,-0.023654204,0.05113185,-0.12027199,-1.415144,0.0036438024,229.39903,8.460654,0.37889788,0.4195289,0.14836085,0.11824932,inf,inf,inf,inf,1,1,1,1,2,0,2,1,5,1,1,1,0,0
7030876000,7030876000,1032000,41.606704,-86.3556021,8.185459,19.465767,-7.8680325,0.00034660974,0.00016096387,0.0,-1.0344168,-2.4941454,0.6352367,0.7519771,-0.0007434996,-0.01219567,-0.016614992,-0.100471705,-0.09161173,-0.14223257,-1.4117125,0.0036438024,229.39903,8.080028,0.360869,0.41273633,0.13975473,0.11454348,inf,inf,inf,inf,1,1,1,1,2,0,2,1,5,1,1,1,0,0
7031380000,7031380000,1032000,41.606704,-86.3556021,7.6719656,18.19997,-7.4960585,0.00034660974,0.00016096387,0.0,-1.0569273,-2.4904776,0.62323886,0.73345596,-0.0007434996,-0.01219567,-0.016614992,-0.048041787,0.09360033,-0.069660194,-1.392997,0.0036438024,229.39903,7.7080536,0.3853193,0.42120016,0.15202072,0.11925333,inf,inf,inf,inf,1,1,1,1,2,0,2,1,5,1,1,1,0,0
7031876000,7031876000,1032000,41.606704,-86.3556021,7.157884,16.964388,-7.1355443,0.00034660974,0.00016096387,0.0,-1.0536172,-2.4758222,0.6353622,0.7393316,-0.0007434996,-0.01219567,-0.016614992,-0.07998415,0.08798066,-0.10252657,-1.376786,0.0036438024,229.39903,7.3475394,0.3653036,0.414167,0.14177035,0.115228325,inf,inf,inf,inf,1,1,1,1,2,0,2,1,5,1,1,1,0,0
7032372000,7032372000,1032000,41.606704,-86.3556021,6.645442,15.724803,-6.7686615,0.00034660974,0.00016096387,0.0,-1.0541226,-2.485964,0.6368428,0.7386648,-0.0007434996,-0.01219567,-0.016614992,0.08229329,-0.049025584,-0.14068191,-1.3712387,0.0036438024,229.39903,6.9806566,0.36795413,0.41628662,0.14328463,0.11579058,inf,inf,inf,inf,1,1,1,1,2,0,2,1,5,1,1,1,0,0
7032876000,7032876000,1032000,41.606704,-86.3556021,6.1228647,14.464859,-6.4048233,0.00034660974,0.00016096387,0.0,-1.0500498,-2.4837182,0.653701,0.7467343,-0.0007434996,-0.01219567,-0.016614992,0.01561519,-0.030941237,-0.23323302,-1.350861,0.0036438024,229.39903,6.6168184,0.36973402,0.41579032,0.14353125,0.115789,inf,inf,inf,inf,1,1,1,1,2,0,2,1,5,1,1,1,0,0
7033372000,7033372000,1032000,41.606704,-86.3556021,5.60466,13.230911,-6.0392776,0.00034660974,0.00016096387,0.0,-1.0472112,-2.4810688,0.65336806,0.7426365,-0.0007434996,-0.01219567,-0.016614992,0.046846345,0.014768914,-0.14463165,-1.3361788,0.0036438024,229.39903,6.2512727,0.37189847,0.41767025,0.14460681,0.11612759,inf,inf,inf,inf,1,1,1,1,2,0,2,1,5,1,1,1,0,0
7033876000,7033876000,1032000,41.606704,-86.3556021,5.076062,11.973857,-5.671525,0.00034660974,0.00016096387,0.0,-1.0345374,-2.482713,0.6584711,0.742138,-0.0007434996,-0.01219567,-0.016614992,0.045558233,0.027158005,-0.08932414,-1.3231243,0.0036438024,229.39903,5.88352,0.37572315,0.42021763,0.14675339,0.116791196,inf,inf,inf,inf,1,1,1,1,2,0,2,1,5,1,1,1,0,0
7034380000,7034380000,1032000,41.606704,-86.3556021,4.5456476,10.715364,-5.300385,0.00034660974,0.00016096387,0.0,-1.0338277,-2.4905849,0.66790986,0.74973065,-0.0007434996,-0.01219567,-0.016614992,0.029779257,-0.013957011,-0.1289193,-1.3004625,0.0036438024,229.39903,5.51238,0.37775734,0.41944417,0.14716218,0.116702765,inf,inf,inf,inf,1,1,1,1,2,0,2,1,5,1,1,1,0,0
7034876000,7034876000,1032000,41.606704,-86.3556021,4.0113883,9.462269,-4.9225082,0.00034660974,0.00016096387,0.0,-1.0305477,-2.5002704,0.6685275,0.7559299,-0.0007434996,-0.01219567,-0.016614992,0.16301982,0.020644654,-0.12857565,-1.2912546,0.0036438024,229.39903,5.1345034,0.35992426,0.41540572,0.1385558,0.1132659,inf,inf,inf,inf,1,1,1,1,2,0,2,1,5,1,1,1,0,0
7035380000,7035380000,1032000,41.606704,-86.3556021,3.4758854,8.187339,-4.547866,0.00034660974,0.00016096387,0.0,-1.0080941,-2.4791434,0.660853,0.7451952,-0.0007434996,-0.01219567,-0.016614992,0.07742251,0.016787594,-0.12472836,-1.273869,0.0036438024,229.39903,4.759861,0.38289884,0.42041412,0.14944418,0.117012314,inf,inf,inf,inf,1,1,1,1,2,0,2,1,5,1,1,1,0,0
7035876000,7035876000,1032000,41.606704,-86.3556021,2.963329,6.935435,-4.1771054,0.00034660974,0.00016096387,0.0,-0.9966792,-2.4753587,0.66438633,0.74863183,-0.0007434996,-0.01219567,-0.016614992,0.020799942,0.07644105,-0.13849983,-1.2560595,0.0036438024,229.39903,4.3891006,0.36371353,0.41617367,0.14005965,0.11345977,inf,inf,inf,inf,1,1,1,1,2,0,2,1,5,1,1,1,0,0
7036380000,7036380000,1032000,41.606704,-86.3556021,2.4422088,5.6652784,-3.8039873,0.00034660974,0.00016096387,0.0,-1.0004466,-2.4749253,0.66663986,0.74743897,-0.0007434996,-0.01219567,-0.016614992,0.14151517,0.029086014,-0.04468026,-1.249652,0.0036438024,229.39903,4.015982,0.36728695,0.41548246,0.14218059,0.11373774,inf,inf,inf,inf,1,1,1,1,2,0,2,1,5,1,1,1,0,0
7036876000,7036876000,1032000,41.606704,-86.3556021,1.9282666,4.4164686,-3.4404793,0.00034660974,0.00016096387,0.0,-1.0071554,-2.4837065,0.67815775,0.75221777,-0.0007434996,-0.01219567,-0.016614992,-0.019306574,0.025961943,-0.118643105,-1.2297155,0.0036438024,229.39903,3.6524744,0.36854285,0.41709945,0.14223456,0.11389267,inf,inf,inf,inf,1,1,1,1,2,0,2,1,5,1,1,1,0,0
7037380000,7037380000,1032000,41.606704,-86.3556021,1.4100618,3.1480825,-3.0682948,0.00034660974,0.00016096387,0.0,-0.9954494,-2.4742115,0.6798069,0.7486497,-0.0007434996,-0.01219567,-0.016614992,-0.025029363,-0.017231915,-0.11105376,-1.2059685,0.0036438024,229.39903,3.2802896,0.3714824,0.41648677,0.14371577,0.11408066,inf,inf,inf,inf,1,1,1,1,2,0,2,1,5,1,1,1,0,0
7037876000,7037876000,1032000,41.606704,-86.3556021,0.90867347,1.9169827,-2.7086058,0.00034660974,0.00016096387,0.0,-0.99803275,-2.4457176,0.6944668,0.7522469,-0.0007434996,-0.01219567,-0.016614992,0.029743114,0.27457842,0.26927975,-1.1963181,0.0036438024,229.39903,2.920601,0.3733705,0.4181967,0.14438622,0.114373654,inf,inf,inf,inf,1,1,1,1,2,0,2,1,5,1,1,1,0,0
7038372000,7038372000,1032000,41.606704,-86.3556021,0.40452868,0.7291216,-2.3401759,0.00034660974,0.00016096387,0.0,-0.9918704,-2.2318501,0.76146394,0.8041168,-0.0007434996,-0.01219567,-0.016614992,0.43676436,1.039091,0.25907058,-1.1837453,0.0036438024,229.39903,2.5521708,0.37503293,0.41681552,0.14492688,0.11427571,inf,inf,inf,inf,1,1,1,1,2,0,2,1,5,1,1,1,0,0
7038876000,7038876000,1032000,41.606704,-86.3556021,-0.07556849,-0.2832311,-1.9475247,0.00034660974,0.00016096387,0.0,-0.8433611,-1.6094278,0.6699346,0.7082286,-0.0007434996,-0.01219567,-0.016614992,0.4786291,1.4278977,-0.73362607,-1.157985,0.0036438024,229.39903,2.1595197,0.3585622,0.4136411,0.13813254,0.11142248,inf,inf,inf,inf,1,1,1,1,2,0,2,1,5,1,1,1,0,0
7039380000,7039380000,1032000,41.606704,-86.3556021,-0.4295298,-0.9287701,-1.6820871,0.00034660974,0.00016096387,0.0,-0.53126323,-0.84836537,0.33003688,0.3653412,-0.0007434996,-0.01219567,-0.016614992,0.6086576,1.3740355,-0.6598858,-1.1407712,0.0036438024,229.39903,1.8940821,0.3815344,0.41845185,0.15158767,0.115249746,inf,inf,inf,inf,1,1,1,1,2,0,2,1,5,1,1,1,0,0
7039876000,7039876000,1032000,41.606704,-86.3556021,-0.61494505,-1.2397826,-1.5697083,0.00034660974,0.00016096387,0.0,-0.24323638,-0.28589138,0.1098899,0.14022245,-0.0007434996,-0.01219567,-0.016614992,0.44611236,0.9923834,-0.3722124,-1.1189054,0.0036438024,229.39903,1.7817034,0.36253855,0.41446826,0.1428896,0.1122134,inf,inf,inf,inf,1,1,1,1,2,0,2,1,5,1,1,1,0,0
7040380000,7040380000,1032000,41.606704,-86.3556021,-0.67270696,-1.3172717,-1.5369805,0.00034660974,0.00016096387,0.0,-0.05955897,0.028799968,0.019694373,0.042480193,-0.0007434996,-0.01219567,-0.016614992,0.23304076,0.36665967,-0.09005802,-1.0943041,0.0036438024,229.39903,1.7489755,0.3874283,0.41950515,0.15499559,0.11660429,inf,inf,inf,inf,1,1,1,1,2,0,2,1,5,1,1,1,0,0
7040876000,7040876000,1032000,41.606704,-86.3556021,-0.65802956,-1.2839258,-1.5440426,0.00034660974,0.00016096387,0.0,0.010652781,0.12788603,0.013709175,0.01820456,-0.0007434996,-0.01219567,-0.016614992,0.17009436,0.11612942,-0.13933802,-1.0954314,0.0036438024,229.39903,1.7560376,0.36680475,0.4153745,0.14282763,0.11370828,inf,inf,inf,inf,1,1,1,1,2,0,2,1,5,1,1,1,0,0
7041380000,7041380000,1032000,41.606704,-86.3556021,-0.62517494,-1.222942,-1.4864576,0.00034660974,0.00016096387,0.0,0.029582826,0.14374714,0.5233657,0.5054947,-0.0007434996,-0.01219567,-0.016614992,-0.08314241,-0.0821751,2.2891567,-1.097986,0.0036438024,229.39903,1.6984526,0.3700163,0.414821,0.14224067,0.11471442,inf,inf,inf,inf,1,1,1,1,2,0,2,1,5,1,1,1,0,0
7041876000,7041876000,1032000,41.606704,-86.3556021,-0.59906894,-1.1771406,-1.1342674,0.00034660974,0.00016096387,0.0,-0.00061155204,0.064278826,0.7641522,0.72903407,-0.0007434996,-0.01219567,-0.016614992,-0.022220973,-0.17605345,-0.56160337,-1.0974692,0.0036438024,229.39903,1.3462625,0.37195897,0.41668054,0.14126852,0.115803935,inf,inf,inf,inf,1,1,1,1,2,0,2,1,5,1,1,1,0,0
7042372000,7042372000,1032000,41.606704,-86.3556021,-0.59034467,-1.1579292,-0.8187712,0.00034660974,0.00016096387,0.0,-0.02489325,0.018975662,0.6886672,0.64332235,-0.0007434996,-0.01219567,-0.016614992,-0.07488141,-0.11617377,0.043228205,-1.0956233,0.0036438024,229.39903,1.0307662,0.37368178,0.41562676,0.14257352,0.11643505,inf,inf,inf,inf,1,1,1,1,2,0,2,1,5,1,1,1,0,0
7042876000,7042876000,1032000,41.606704,-86.3556021,-0.59352565,-1.1601175,-0.50938857,0.00034660974,0.00016096387,0.0,-0.035699308,-0.030584136,0.7139111,0.65666133,-0.0007434996,-0.01219567,-0.016614992,0.033410456,-0.028504035,0.11571955,-1.094651,0.0036438024,229.39903,0.7213836,0.37708172,0.4182506,0.14467111,0.11770273,inf,inf,inf,inf,1,1,1,1,2,0,2,1,5,1,1,1,0,0
7043380000,7043380000,1032000,41.606704,-86.3556021,-0.5999167,-1.1817927,-0.17850675,0.00034660974,0.00016096387,0.0,-0.031049466,-0.05027222,0.71375054,0.65851134,-0.0007434996,-0.01219567,-0.016614992,-0.021738669,-0.07374849,0.042011898,-1.0941819,0.0036438024,229.39903,0.39050174,0.3788392,0.42062676,0.14545621,0.11850949,inf,inf,inf,inf,1,1,1,1,2,0,2,1,5,1,1,1,0,0
7043876000,7043876000,1032000,41.606704,-86.3556021,-0.6031713,-1.2056135,0.14057884,0.00034660974,0.00016096387,0.0,-0.034304045,-0.056756526,0.714595,0.65480596,-0.0007434996,-0.01219567,-0.016614992,-0.05202327,-0.003171676,0.011153456,-1.0944059,0.0036438024,229.39903,0.1,0.36086094,0.41372454,0.13745454,0.11504,inf,inf,inf,inf,1,1,1,1,2,0,2,1,5,1,1,1,0,0
7044380000,7044380000,1032000,41.606704,-86.3556021,-0.6175345,-1.2268758,0.28374323,0.00034660974,0.00016096387,0.0,-0.025314642,-0.0050430666,0.12812568,0.12714702,-0.0007434996,-0.01219567,-0.016614992,0.005487081,-0.09547164,0.022097426,-1.0966487,0.0036438024,229.39903,0.10934919,0.3850881,0.42163813,0.15201192,0.1135888,inf,inf,inf,inf,1,1,1,1,2,0,2,1,5,1,1,1,0,0
7044876000,7044876000,1032000,41.606704,-86.3556021,-0.62137336,-1.2378938,0.31603208,0.00034660974,0.00016096387,0.0,-0.025179323,-0.0067890096,0.13271955,0.10124771,-0.0007434996,-0.01219567,-0.016614992,0.106214546,0.13751672,0.19376531,-1.0954324,0.0036438024,229.39903,0.1,0.36522993,0.41439596,0.1438536,0.1037414,inf,inf,inf,inf,1,1,1,1,2,0,2,1,5,1,1,1,0,0
7045380000,7045380000,1032000,41.606704,-86.3556021,-0.61985976,-1.2420924,0.31177172,0.00034660974,0.00016096387,0.0,-0.016088469,-0.010163845,0.12918656,0.05467478,-0.0007434996,-0.01219567,-0.016614992,-0.056509815,-0.031808127,0.0494066,-1.0952175,0.0036438024,229.39903,0.1,0.36856097,0.4128806,0.14962833,0.1002122,inf,inf,inf,inf,1,1,1,1,2,0,2,1,5,1,1,1,0,0
7045876000,7045876000,1032000,41.606704,-86.3556021,-0.62017107,-1.2432816,0.32176292,0.00034660974,0.00016096387,0.0,-0.0037368014,-0.011161307,0.13454589,0.046275347,-0.0007434996,-0.01219567,-0.016614992,0.18282041,-0.023958972,-0.12995215,-1.0953455,0.0036438024,229.39903,0.1,0.36981732,0.41331428,0.15299928,0.09899578,inf,inf,inf,inf,1,1,1,1,2,0,2,1,5,1,1,1,0,0
7046380000,7046380000,1032000,41.606704,-86.3556021,-0.6158782,-1.242271,0.32121134,0.00034660974,0.00016096387,0.0,-0.0005505828,-0.011309063,0.12892076,0.024696354,-0.0007434996,-0.01219567,-0.016614992,0.028881818,0.050132673,0.055104427,-1.0952322,0.0036438024,229.39903,0.1,0.37284863,0.4140545,0.15709135,0.09971568,inf,inf,inf,inf,1,1,1,1,2,0,2,1,5,0,1,1,1,0
7046876000,7046876000,1032000,41.606704,-86.3556021,-0.61259836,-1.2400031,0.21502003,0.00034660974,0.00016096387,0.0,0.0041935104,-0.008083148,0.08454893,-0.12748574,-0.0007434996,-0.01219567,-0.016614992,-0.0036535847,0.09019571,0.11186201,-1.0952895,0.0036438024,229.39903,0.1,0.30207047,0.32125857,0.013743337,0.010123461,inf,inf,inf,inf,1,1,1,1,2,0,2,1,5,0,1,1,1,0
7047372000,7047372000,1032000,41.606704,-86.3556021,-0.6085152,-1.2353866,-0.002460275,0.00034660974,0.00016096387,0.0,0.0046910243,1.3094286e-05,0.0048099244,-0.28206885,-0.0007434996,-0.01219567,-0.016614992,-0.019228721,0.05597389,0.54936194,-1.0952287,0.0036438024,229.39903,0.10909271,0.28370982,0.30749038,0.019374039,0.013707771,inf,inf,inf,inf,1,1,1,1,2,0,2,1,5,0,1,1,1,0
7047876000,7047876000,1032000,41.606704,-86.3556021,-0.60407734,-1.2296201,-0.020442087,0.00034660974,0.00016096387,0.0,0.006817003,0.0057194163,-0.0058714934,-0.17735268,-0.0007434996,-0.01219567,-0.016614992,0.037767675,0.01957864,0.038508262,-1.095186,0.0036438024,229.39903,0.1472705,0.2648275,0.2949868,0.009956785,0.0070643006,inf,inf,inf,inf,1,1,1,1,2,0,2,1,5,0,1,1,1,0
7048380000,7048380000,1032000,41.606704,-86.3556021,-0.59625703,-1.2257098,-0.0025375627,0.00034660974,0.00016096387,0.0,0.008307982,0.001787122,-0.008279083,-0.08975352,-0.0007434996,-0.01219567,-0.016614992,-0.008970863,-0.023865594,-0.019972276,-1.0949699,0.0036438024,229.39903,0.14035618,0.25920492,0.28624597,0.017057082,0.012203089,inf,inf,inf,inf,1,1,1,1,2,0,2,1,5,0,1,1,1,0
7048876000,7048876000,1032000,41.606704,-86.3556021,-0.59435254,-1.2265729,0.016930595,0.00034660974,0.00016096387,0.0,-0.0010908035,0.0008436163,-0.006131732,-0.0386584,-0.0007434996,-0.01219567,-0.016614992,-0.061009604,0.009525593,-0.7665642,-1.094791,0.0036438024,229.39903,0.13195403,0.24633352,0.2775806,0.004214385,0.0029834523,inf,inf,inf,inf,1,1,1,1,2,0,2,1,5,0,1,1,1,0
